submission_id,RT,actualLife,age,comments,education,endTime,experiment_id,gender,intent,languages,option1,option2,outcome,perceivedLife,question,rating_slider,rating_slider_actual,rating_slider_perceived,startDate,startTime,timeSpent,trial_number,trial_type
221,175175,Looking at the actual life: ,19,"it took me the first two stories to find out what you were gaming at, I'm interested in the results:)",graduated_high_school,1543487795175,12,female,devil,german,Completely Disagree,Completely Agree,Good,Looking at the perceived life: ,Noscorr was happy.,100,73,72,Thu Nov 29 2018 10:47:40 GMT+0100 (Mitteleuropäische Normalzeit),1543484860401,48.9129,1,mainSliderRating
221,106689,Looking at the actual life: ,19,"it took me the first two stories to find out what you were gaming at, I'm interested in the results:)",graduated_high_school,1543487795175,12,female,angel,german,Completely Disagree,Completely Agree,Good,Looking at the perceived life: ,Merrhi was happy.,100,81,83,Thu Nov 29 2018 10:47:40 GMT+0100 (Mitteleuropäische Normalzeit),1543484860401,48.9129,2,mainSliderRating
221,90286,Looking at the actual life: ,19,"it took me the first two stories to find out what you were gaming at, I'm interested in the results:)",graduated_high_school,1543487795175,12,female,devil,german,Completely Disagree,Completely Agree,Bad,Looking at the perceived life: ,Khamma was happy.,100,13,100,Thu Nov 29 2018 10:47:40 GMT+0100 (Mitteleuropäische Normalzeit),1543484860401,48.9129,3,mainSliderRating
221,84548,Looking at the actual life: ,19,"it took me the first two stories to find out what you were gaming at, I'm interested in the results:)",graduated_high_school,1543487795175,12,female,angel,german,Completely Disagree,Completely Agree,Bad,Looking at the perceived life: ,Cyp was happy.,100,57,71,Thu Nov 29 2018 10:47:40 GMT+0100 (Mitteleuropäische Normalzeit),1543484860401,48.9129,4,mainSliderRating
220,440807,Looking at the actual life: ,23,"probably the point could have been at the same level in all 4 scenarios. There was just my interpretation of what ought to be a happy life and what not. I realized, which thoughts I have made up- that. e.g. working for others is judged better- makes people happier, than wanting to be pittied by others and fighting for this. \nEvery alien was ascribed the feature that they are happy about there life. why do I have to judge it further?",graduated_high_school,1543418181420,12,female,devil,german,Completely Disagree,Completely Agree,Bad,Looking at the perceived life: ,Khamma was happy.,18,29,60,Wed Nov 28 2018 15:43:06 GMT+0100 (Mitteleuropäische Normalzeit),1543416186387,33.25055,1,mainSliderRating
220,179159,Looking at the actual life: ,23,"probably the point could have been at the same level in all 4 scenarios. There was just my interpretation of what ought to be a happy life and what not. I realized, which thoughts I have made up- that. e.g. working for others is judged better- makes people happier, than wanting to be pittied by others and fighting for this. \nEvery alien was ascribed the feature that they are happy about there life. why do I have to judge it further?",graduated_high_school,1543418181420,12,female,angel,german,Completely Disagree,Completely Agree,Good,Looking at the perceived life: ,Merrhi was happy.,58,38,64,Wed Nov 28 2018 15:43:06 GMT+0100 (Mitteleuropäische Normalzeit),1543416186387,33.25055,2,mainSliderRating
220,992778,Looking at the actual life: ,23,"probably the point could have been at the same level in all 4 scenarios. There was just my interpretation of what ought to be a happy life and what not. I realized, which thoughts I have made up- that. e.g. working for others is judged better- makes people happier, than wanting to be pittied by others and fighting for this. \nEvery alien was ascribed the feature that they are happy about there life. why do I have to judge it further?",graduated_high_school,1543418181420,12,female,angel,german,Completely Disagree,Completely Agree,Bad,Looking at the perceived life: ,Noscorr was happy.,65,59,61,Wed Nov 28 2018 15:43:06 GMT+0100 (Mitteleuropäische Normalzeit),1543416186387,33.25055,3,mainSliderRating
220,130086,Looking at the actual life: ,23,"probably the point could have been at the same level in all 4 scenarios. There was just my interpretation of what ought to be a happy life and what not. I realized, which thoughts I have made up- that. e.g. working for others is judged better- makes people happier, than wanting to be pittied by others and fighting for this. \nEvery alien was ascribed the feature that they are happy about there life. why do I have to judge it further?",graduated_high_school,1543418181420,12,female,devil,german,Completely Disagree,Completely Agree,Good,Looking at the perceived life: ,Cyp was happy.,45,43,37,Wed Nov 28 2018 15:43:06 GMT+0100 (Mitteleuropäische Normalzeit),1543416186387,33.25055,4,mainSliderRating
219,188948,Looking at the actual life: ,23,,higher_degree,1543223033015,12,female,angel,french,Completely Disagree,Completely Agree,Bad,Looking at the perceived life: ,Khamma was happy.,98,86,100,Mon Nov 26 2018 09:56:16 GMT+0100 (heure normale d’Europe centrale),1543222576098,7.615283333333333,1,mainSliderRating
219,91771,Looking at the actual life: ,23,,higher_degree,1543223033015,12,female,devil,french,Completely Disagree,Completely Agree,Bad,Looking at the perceived life: ,Cyp was happy.,87,85,100,Mon Nov 26 2018 09:56:16 GMT+0100 (heure normale d’Europe centrale),1543222576098,7.615283333333333,2,mainSliderRating
219,81366,Looking at the actual life: ,23,,higher_degree,1543223033015,12,female,devil,french,Completely Disagree,Completely Agree,Good,Looking at the perceived life: ,Noscorr was happy.,89,70,100,Mon Nov 26 2018 09:56:16 GMT+0100 (heure normale d’Europe centrale),1543222576098,7.615283333333333,3,mainSliderRating
219,64708,Looking at the actual life: ,23,,higher_degree,1543223033015,12,female,angel,french,Completely Disagree,Completely Agree,Good,Looking at the perceived life: ,Merrhi was happy.,89,87,100,Mon Nov 26 2018 09:56:16 GMT+0100 (heure normale d’Europe centrale),1543222576098,7.615283333333333,4,mainSliderRating
218,142120,Looking at the actual life: ,19,,graduated_high_school,1543141896767,12,female,angel,german,Completely Disagree,Completely Agree,Bad,Looking at the perceived life: ,Khamma was happy.,100,100,100,Sun Nov 25 2018 11:25:13 GMT+0100 (Mitteleuropäische Zeit),1543141513753,6.383566666666667,1,mainSliderRating
218,84766,Looking at the actual life: ,19,,graduated_high_school,1543141896767,12,female,devil,german,Completely Disagree,Completely Agree,Good,Looking at the perceived life: ,Noscorr was happy.,96,71,100,Sun Nov 25 2018 11:25:13 GMT+0100 (Mitteleuropäische Zeit),1543141513753,6.383566666666667,2,mainSliderRating
218,54529,Looking at the actual life: ,19,,graduated_high_school,1543141896767,12,female,angel,german,Completely Disagree,Completely Agree,Good,Looking at the perceived life: ,Merrhi was happy.,100,98,98,Sun Nov 25 2018 11:25:13 GMT+0100 (Mitteleuropäische Zeit),1543141513753,6.383566666666667,3,mainSliderRating
218,51953,Looking at the actual life: ,19,,graduated_high_school,1543141896767,12,female,devil,german,Completely Disagree,Completely Agree,Bad,Looking at the perceived life: ,Cyp was happy.,100,30,100,Sun Nov 25 2018 11:25:13 GMT+0100 (Mitteleuropäische Zeit),1543141513753,6.383566666666667,4,mainSliderRating
217,176991,Looking at the actual life: ,19,,graduated_high_school,1543054354105,12,female,devil,german,Completely Disagree,Completely Agree,Good,Looking at the perceived life: ,Cyp was happy.,69,57,100,Sat Nov 24 2018 11:04:21 GMT+0100 (CET),1543053861225,8.214666666666666,1,mainSliderRating
217,101639,Looking at the actual life: ,19,,graduated_high_school,1543054354105,12,female,devil,german,Completely Disagree,Completely Agree,Bad,Looking at the perceived life: ,Noscorr was happy.,83,92,93,Sat Nov 24 2018 11:04:21 GMT+0100 (CET),1543053861225,8.214666666666666,2,mainSliderRating
217,88197,Looking at the actual life: ,19,,graduated_high_school,1543054354105,12,female,angel,german,Completely Disagree,Completely Agree,Good,Looking at the perceived life: ,Khamma was happy.,93,73,97,Sat Nov 24 2018 11:04:21 GMT+0100 (CET),1543053861225,8.214666666666666,3,mainSliderRating
217,75298,Looking at the actual life: ,19,,graduated_high_school,1543054354105,12,female,angel,german,Completely Disagree,Completely Agree,Bad,Looking at the perceived life: ,Merrhi was happy.,91,87,88,Sat Nov 24 2018 11:04:21 GMT+0100 (CET),1543053861225,8.214666666666666,4,mainSliderRating
216,210791,Looking at the actual life: ,39,,graduated_college,1542970169139,12,female,devil,german,Completely Disagree,Completely Agree,Bad,Looking at the perceived life: ,Noscorr was happy.,100,100,100,Fri Nov 23 2018 11:41:44 GMT+0100 (CET),1542969704470,7.744483333333333,1,mainSliderRating
216,71550,Looking at the actual life: ,39,,graduated_college,1542970169139,12,female,angel,german,Completely Disagree,Completely Agree,Good,Looking at the perceived life: ,Merrhi was happy.,100,100,100,Fri Nov 23 2018 11:41:44 GMT+0100 (CET),1542969704470,7.744483333333333,2,mainSliderRating
216,67692,Looking at the actual life: ,39,,graduated_college,1542970169139,12,female,angel,german,Completely Disagree,Completely Agree,Bad,Looking at the perceived life: ,Khamma was happy.,100,100,100,Fri Nov 23 2018 11:41:44 GMT+0100 (CET),1542969704470,7.744483333333333,3,mainSliderRating
216,74434,Looking at the actual life: ,39,,graduated_college,1542970169139,12,female,devil,german,Completely Disagree,Completely Agree,Good,Looking at the perceived life: ,Cyp was happy.,100,100,100,Fri Nov 23 2018 11:41:44 GMT+0100 (CET),1542969704470,7.744483333333333,4,mainSliderRating
215,103520,Looking at the actual life: ,45,,higher_degree,1542880661096,12,female,devil,german,Completely Disagree,Completely Agree,Bad,Looking at the perceived life: ,Cyp was happy.,100,100,100,Thu Nov 22 2018 10:51:40 GMT+0100 (CET),1542880300318,6.012966666666666,1,mainSliderRating
215,55428,Looking at the actual life: ,45,,higher_degree,1542880661096,12,female,angel,german,Completely Disagree,Completely Agree,Good,Looking at the perceived life: ,Merrhi was happy.,100,100,100,Thu Nov 22 2018 10:51:40 GMT+0100 (CET),1542880300318,6.012966666666666,2,mainSliderRating
215,91590,Looking at the actual life: ,45,,higher_degree,1542880661096,12,female,angel,german,Completely Disagree,Completely Agree,Bad,Looking at the perceived life: ,Khamma was happy.,92,69,97,Thu Nov 22 2018 10:51:40 GMT+0100 (CET),1542880300318,6.012966666666666,3,mainSliderRating
215,61019,Looking at the actual life: ,45,,higher_degree,1542880661096,12,female,devil,german,Completely Disagree,Completely Agree,Good,Looking at the perceived life: ,Noscorr was happy.,99,100,99,Thu Nov 22 2018 10:51:40 GMT+0100 (CET),1542880300318,6.012966666666666,4,mainSliderRating
214,88111,Looking at the actual life: ,39,,higher_degree,1542793956606,12,male,devil,,Completely Disagree,Completely Agree,Good,Looking at the perceived life: ,Merrhi was happy.,20,45,18,Wed Nov 21 2018 10:47:28 GMT+0100 (Central European Standard Time),1542793648354,5.137533333333334,1,mainSliderRating
214,66720,Looking at the actual life: ,39,,higher_degree,1542793956606,12,male,angel,,Completely Disagree,Completely Agree,Bad,Looking at the perceived life: ,Khamma was happy.,73,34,85,Wed Nov 21 2018 10:47:28 GMT+0100 (Central European Standard Time),1542793648354,5.137533333333334,2,mainSliderRating
214,63153,Looking at the actual life: ,39,,higher_degree,1542793956606,12,male,angel,,Completely Disagree,Completely Agree,Good,Looking at the perceived life: ,Noscorr was happy.,79,71,85,Wed Nov 21 2018 10:47:28 GMT+0100 (Central European Standard Time),1542793648354,5.137533333333334,3,mainSliderRating
214,63480,Looking at the actual life: ,39,,higher_degree,1542793956606,12,male,devil,,Completely Disagree,Completely Agree,Bad,Looking at the perceived life: ,Cyp was happy.,57,63,56,Wed Nov 21 2018 10:47:28 GMT+0100 (Central European Standard Time),1542793648354,5.137533333333334,4,mainSliderRating
213,113008,Looking at the actual life: ,23,,graduated_college,1542744770415,12,male,devil,German,Completely Disagree,Completely Agree,Good,Looking at the perceived life: ,Khamma was happy.,100,0,100,Tue Nov 20 2018 21:06:04 GMT+0100 (CET),1542744364419,6.7666,1,mainSliderRating
213,98552,Looking at the actual life: ,23,,graduated_college,1542744770415,12,male,angel,German,Completely Disagree,Completely Agree,Good,Looking at the perceived life: ,Merrhi was happy.,100,100,100,Tue Nov 20 2018 21:06:04 GMT+0100 (CET),1542744364419,6.7666,2,mainSliderRating
213,67822,Looking at the actual life: ,23,,graduated_college,1542744770415,12,male,devil,German,Completely Disagree,Completely Agree,Bad,Looking at the perceived life: ,Noscorr was happy.,100,74,100,Tue Nov 20 2018 21:06:04 GMT+0100 (CET),1542744364419,6.7666,3,mainSliderRating
213,86044,Looking at the actual life: ,23,,graduated_college,1542744770415,12,male,angel,German,Completely Disagree,Completely Agree,Bad,Looking at the perceived life: ,Cyp was happy.,100,70,100,Tue Nov 20 2018 21:06:04 GMT+0100 (CET),1542744364419,6.7666,4,mainSliderRating
212,90694,Looking at the actual life: ,20,,graduated_high_school,1542740600087,12,female,angel,German,Completely Disagree,Completely Agree,Good,Looking at the perceived life: ,Khamma was happy.,84,27,74,Tue Nov 20 2018 19:58:36 GMT+0100 (CET),1542740316198,4.731483333333333,1,mainSliderRating
212,54616,Looking at the actual life: ,20,,graduated_high_school,1542740600087,12,female,angel,German,Completely Disagree,Completely Agree,Bad,Looking at the perceived life: ,Merrhi was happy.,95,18,76,Tue Nov 20 2018 19:58:36 GMT+0100 (CET),1542740316198,4.731483333333333,2,mainSliderRating
212,56353,Looking at the actual life: ,20,,graduated_high_school,1542740600087,12,female,devil,German,Completely Disagree,Completely Agree,Good,Looking at the perceived life: ,Cyp was happy.,92,37,69,Tue Nov 20 2018 19:58:36 GMT+0100 (CET),1542740316198,4.731483333333333,3,mainSliderRating
212,43623,Looking at the actual life: ,20,,graduated_high_school,1542740600087,12,female,devil,German,Completely Disagree,Completely Agree,Bad,Looking at the perceived life: ,Noscorr was happy.,95,85,87,Tue Nov 20 2018 19:58:36 GMT+0100 (CET),1542740316198,4.731483333333333,4,mainSliderRating
211,178282,Looking at the actual life: ,29,,graduated_college,1542717664384,12,female,devil,german,Completely Disagree,Completely Agree,Bad,Looking at the perceived life: ,Noscorr was happy.,83,88,100,Tue Nov 20 2018 13:32:01 GMT+0100 (W. Europe Standard Time),1542717121420,9.0494,1,mainSliderRating
211,115630,Looking at the actual life: ,29,,graduated_college,1542717664384,12,female,devil,german,Completely Disagree,Completely Agree,Good,Looking at the perceived life: ,Merrhi was happy.,84,11,84,Tue Nov 20 2018 13:32:01 GMT+0100 (W. Europe Standard Time),1542717121420,9.0494,2,mainSliderRating
211,109420,Looking at the actual life: ,29,,graduated_college,1542717664384,12,female,angel,german,Completely Disagree,Completely Agree,Bad,Looking at the perceived life: ,Khamma was happy.,92,79,81,Tue Nov 20 2018 13:32:01 GMT+0100 (W. Europe Standard Time),1542717121420,9.0494,3,mainSliderRating
211,67556,Looking at the actual life: ,29,,graduated_college,1542717664384,12,female,angel,german,Completely Disagree,Completely Agree,Good,Looking at the perceived life: ,Cyp was happy.,93,98,98,Tue Nov 20 2018 13:32:01 GMT+0100 (W. Europe Standard Time),1542717121420,9.0494,4,mainSliderRating
210,123296,Looking at the actual life: ,55,,,1542716975771,12,female,angel,d,Completely Disagree,Completely Agree,Bad,Looking at the perceived life: ,Khamma was happy.,100,71,98,Tue Nov 20 2018 13:17:56 GMT+0100 (W. Europe Standard Time),1542716276417,11.6559,1,mainSliderRating
210,365655,Looking at the actual life: ,55,,,1542716975771,12,female,devil,d,Completely Disagree,Completely Agree,Good,Looking at the perceived life: ,Cyp was happy.,99,71,100,Tue Nov 20 2018 13:17:56 GMT+0100 (W. Europe Standard Time),1542716276417,11.6559,2,mainSliderRating
210,113859,Looking at the actual life: ,55,,,1542716975771,12,female,devil,d,Completely Disagree,Completely Agree,Bad,Looking at the perceived life: ,Merrhi was happy.,11,30,90,Tue Nov 20 2018 13:17:56 GMT+0100 (W. Europe Standard Time),1542716276417,11.6559,3,mainSliderRating
210,76912,Looking at the actual life: ,55,,,1542716975771,12,female,angel,d,Completely Disagree,Completely Agree,Good,Looking at the perceived life: ,Noscorr was happy.,97,34,88,Tue Nov 20 2018 13:17:56 GMT+0100 (W. Europe Standard Time),1542716276417,11.6559,4,mainSliderRating
209,188798,Looking at the actual life: ,25,,higher_degree,1542715429178,12,female,devil,German,Completely Disagree,Completely Agree,Bad,Looking at the perceived life: ,Khamma was happy.,2,0,0,Tue Nov 20 2018 12:49:37 GMT+0100,1542714577288,14.198166666666667,1,mainSliderRating
209,173320,Looking at the actual life: ,25,,higher_degree,1542715429178,12,female,angel,German,Completely Disagree,Completely Agree,Bad,Looking at the perceived life: ,Noscorr was happy.,70,60,50,Tue Nov 20 2018 12:49:37 GMT+0100,1542714577288,14.198166666666667,2,mainSliderRating
209,209844,Looking at the actual life: ,25,,higher_degree,1542715429178,12,female,devil,German,Completely Disagree,Completely Agree,Good,Looking at the perceived life: ,Cyp was happy.,34,34,36,Tue Nov 20 2018 12:49:37 GMT+0100,1542714577288,14.198166666666667,3,mainSliderRating
209,157976,Looking at the actual life: ,25,,higher_degree,1542715429178,12,female,angel,German,Completely Disagree,Completely Agree,Good,Looking at the perceived life: ,Merrhi was happy.,100,100,91,Tue Nov 20 2018 12:49:37 GMT+0100,1542714577288,14.198166666666667,4,mainSliderRating
208,212031,Looking at the actual life: ,29,,graduated_college,1542713879769,12,female,devil,German,Completely Disagree,Completely Agree,Bad,Looking at the perceived life: ,Cyp was happy.,100,48,100,Tue Nov 20 2018 12:19:35 GMT+0100 (Mitteleuropäische Normalzeit),1542712775573,18.403266666666667,1,mainSliderRating
208,74862,Looking at the actual life: ,29,,graduated_college,1542713879769,12,female,angel,German,Completely Disagree,Completely Agree,Good,Looking at the perceived life: ,Khamma was happy.,100,100,100,Tue Nov 20 2018 12:19:35 GMT+0100 (Mitteleuropäische Normalzeit),1542712775573,18.403266666666667,2,mainSliderRating
208,71883,Looking at the actual life: ,29,,graduated_college,1542713879769,12,female,angel,German,Completely Disagree,Completely Agree,Bad,Looking at the perceived life: ,Merrhi was happy.,100,50,100,Tue Nov 20 2018 12:19:35 GMT+0100 (Mitteleuropäische Normalzeit),1542712775573,18.403266666666667,3,mainSliderRating
208,92627,Looking at the actual life: ,29,,graduated_college,1542713879769,12,female,devil,German,Completely Disagree,Completely Agree,Good,Looking at the perceived life: ,Noscorr was happy.,100,50,100,Tue Nov 20 2018 12:19:35 GMT+0100 (Mitteleuropäische Normalzeit),1542712775573,18.403266666666667,4,mainSliderRating
207,270608,Looking at the actual life: ,37,,graduated_high_school,1542711822309,12,female,angel,german,Completely Disagree,Completely Agree,Good,Looking at the perceived life: ,Noscorr was happy.,100,0,100,Tue Nov 20 2018 11:53:32 GMT+0100 (W. Europe Standard Time),1542711212397,10.1652,1,mainSliderRating
207,143137,Looking at the actual life: ,37,,graduated_high_school,1542711822309,12,female,devil,german,Completely Disagree,Completely Agree,Good,Looking at the perceived life: ,Merrhi was happy.,100,15,100,Tue Nov 20 2018 11:53:32 GMT+0100 (W. Europe Standard Time),1542711212397,10.1652,2,mainSliderRating
207,93344,Looking at the actual life: ,37,,graduated_high_school,1542711822309,12,female,devil,german,Completely Disagree,Completely Agree,Bad,Looking at the perceived life: ,Khamma was happy.,100,17,100,Tue Nov 20 2018 11:53:32 GMT+0100 (W. Europe Standard Time),1542711212397,10.1652,3,mainSliderRating
207,54443,Looking at the actual life: ,37,,graduated_high_school,1542711822309,12,female,angel,german,Completely Disagree,Completely Agree,Bad,Looking at the perceived life: ,Cyp was happy.,100,0,92,Tue Nov 20 2018 11:53:32 GMT+0100 (W. Europe Standard Time),1542711212397,10.1652,4,mainSliderRating
206,158581,Looking at the actual life: ,25,,higher_degree,1542701616338,12,female,angel,Portuguese,Completely Disagree,Completely Agree,Bad,Looking at the perceived life: ,Noscorr was happy.,75,20,47,Tue Nov 20 2018 09:03:10 GMT+0100 (W. Europe Standard Time),1542700990528,10.430166666666667,1,mainSliderRating
206,177138,Looking at the actual life: ,25,,higher_degree,1542701616338,12,female,devil,Portuguese,Completely Disagree,Completely Agree,Good,Looking at the perceived life: ,Merrhi was happy.,59,11,100,Tue Nov 20 2018 09:03:10 GMT+0100 (W. Europe Standard Time),1542700990528,10.430166666666667,2,mainSliderRating
206,111462,Looking at the actual life: ,25,,higher_degree,1542701616338,12,female,devil,Portuguese,Completely Disagree,Completely Agree,Bad,Looking at the perceived life: ,Khamma was happy.,0,8,77,Tue Nov 20 2018 09:03:10 GMT+0100 (W. Europe Standard Time),1542700990528,10.430166666666667,3,mainSliderRating
206,84449,Looking at the actual life: ,25,,higher_degree,1542701616338,12,female,angel,Portuguese,Completely Disagree,Completely Agree,Good,Looking at the perceived life: ,Cyp was happy.,100,100,75,Tue Nov 20 2018 09:03:10 GMT+0100 (W. Europe Standard Time),1542700990528,10.430166666666667,4,mainSliderRating
205,119989,Looking at the actual life: ,25,,graduated_high_school,1542699885559,12,female,angel,german,Completely Disagree,Completely Agree,Bad,Looking at the perceived life: ,Merrhi was happy.,35,35,35,Tue Nov 20 2018 08:38:18 GMT+0100 (Mitteleuropäische Normalzeit),1542699498050,6.458483333333334,1,mainSliderRating
205,80657,Looking at the actual life: ,25,,graduated_high_school,1542699885559,12,female,angel,german,Completely Disagree,Completely Agree,Good,Looking at the perceived life: ,Noscorr was happy.,20,0,63,Tue Nov 20 2018 08:38:18 GMT+0100 (Mitteleuropäische Normalzeit),1542699498050,6.458483333333334,2,mainSliderRating
205,68900,Looking at the actual life: ,25,,graduated_high_school,1542699885559,12,female,devil,german,Completely Disagree,Completely Agree,Good,Looking at the perceived life: ,Khamma was happy.,0,14,65,Tue Nov 20 2018 08:38:18 GMT+0100 (Mitteleuropäische Normalzeit),1542699498050,6.458483333333334,3,mainSliderRating
205,66359,Looking at the actual life: ,25,,graduated_high_school,1542699885559,12,female,devil,german,Completely Disagree,Completely Agree,Bad,Looking at the perceived life: ,Cyp was happy.,59,68,24,Tue Nov 20 2018 08:38:18 GMT+0100 (Mitteleuropäische Normalzeit),1542699498050,6.458483333333334,4,mainSliderRating
204,95594,Looking at the actual life: ,23,,graduated_high_school,1542699060090,12,male,angel,german,Completely Disagree,Completely Agree,Good,Looking at the perceived life: ,Khamma was happy.,100,81,100,Tue Nov 20 2018 08:24:43 GMT+0100 (W. Europe Standard Time),1542698683048,6.284033333333333,1,mainSliderRating
204,64144,Looking at the actual life: ,23,,graduated_high_school,1542699060090,12,male,devil,german,Completely Disagree,Completely Agree,Bad,Looking at the perceived life: ,Noscorr was happy.,80,56,100,Tue Nov 20 2018 08:24:43 GMT+0100 (W. Europe Standard Time),1542698683048,6.284033333333333,2,mainSliderRating
204,64212,Looking at the actual life: ,23,,graduated_high_school,1542699060090,12,male,devil,german,Completely Disagree,Completely Agree,Good,Looking at the perceived life: ,Merrhi was happy.,100,4,87,Tue Nov 20 2018 08:24:43 GMT+0100 (W. Europe Standard Time),1542698683048,6.284033333333333,3,mainSliderRating
204,46330,Looking at the actual life: ,23,,graduated_high_school,1542699060090,12,male,angel,german,Completely Disagree,Completely Agree,Bad,Looking at the perceived life: ,Cyp was happy.,100,23,100,Tue Nov 20 2018 08:24:43 GMT+0100 (W. Europe Standard Time),1542698683048,6.284033333333333,4,mainSliderRating
203,220548,Looking at the actual life: ,28,It was not clear to me what the first question meant.,graduated_college,1542648215066,12,female,devil,german,Completely Disagree,Completely Agree,Bad,Looking at the perceived life: ,Khamma was happy.,93,8,93,Mon Nov 19 2018 18:11:06 GMT+0100 (W. Europe Standard Time),1542647466856,12.470166666666668,1,mainSliderRating
203,143592,Looking at the actual life: ,28,It was not clear to me what the first question meant.,graduated_college,1542648215066,12,female,angel,german,Completely Disagree,Completely Agree,Good,Looking at the perceived life: ,Merrhi was happy.,94,47,94,Mon Nov 19 2018 18:11:06 GMT+0100 (W. Europe Standard Time),1542647466856,12.470166666666668,2,mainSliderRating
203,117522,Looking at the actual life: ,28,It was not clear to me what the first question meant.,graduated_college,1542648215066,12,female,devil,german,Completely Disagree,Completely Agree,Good,Looking at the perceived life: ,Cyp was happy.,92,36,91,Mon Nov 19 2018 18:11:06 GMT+0100 (W. Europe Standard Time),1542647466856,12.470166666666668,3,mainSliderRating
203,126076,Looking at the actual life: ,28,It was not clear to me what the first question meant.,graduated_college,1542648215066,12,female,angel,german,Completely Disagree,Completely Agree,Bad,Looking at the perceived life: ,Noscorr was happy.,89,33,90,Mon Nov 19 2018 18:11:06 GMT+0100 (W. Europe Standard Time),1542647466856,12.470166666666668,4,mainSliderRating
202,9010525,Looking at the actual life: ,26,,higher_degree,1542648181604,12,female,devil,German,Completely Disagree,Completely Agree,Good,Looking at the perceived life: ,Noscorr was happy.,100,80,90,Mon Nov 19 2018 09:48:41 GMT-0500 (COT),1542638921287,154.33861666666667,1,mainSliderRating
202,59265,Looking at the actual life: ,26,,higher_degree,1542648181604,12,female,angel,German,Completely Disagree,Completely Agree,Good,Looking at the perceived life: ,Cyp was happy.,88,90,92,Mon Nov 19 2018 09:48:41 GMT-0500 (COT),1542638921287,154.33861666666667,2,mainSliderRating
202,72600,Looking at the actual life: ,26,,higher_degree,1542648181604,12,female,devil,German,Completely Disagree,Completely Agree,Bad,Looking at the perceived life: ,Khamma was happy.,63,3,34,Mon Nov 19 2018 09:48:41 GMT-0500 (COT),1542638921287,154.33861666666667,3,mainSliderRating
202,82011,Looking at the actual life: ,26,,higher_degree,1542648181604,12,female,angel,German,Completely Disagree,Completely Agree,Bad,Looking at the perceived life: ,Merrhi was happy.,86,33,67,Mon Nov 19 2018 09:48:41 GMT-0500 (COT),1542638921287,154.33861666666667,4,mainSliderRating
201,633318,Looking at the actual life: ,58,,graduated_high_school,1542640791451,12,female,angel,no,Completely Disagree,Completely Agree,Bad,Looking at the perceived life: ,Cyp was happy.,0,60,60,Mon Nov 19 2018 15:55:00 GMT+0100 (W. Europe Standard Time),1542639300248,24.853383333333333,1,mainSliderRating
201,182068,Looking at the actual life: ,58,,graduated_high_school,1542640791451,12,female,angel,no,Completely Disagree,Completely Agree,Good,Looking at the perceived life: ,Merrhi was happy.,100,75,75,Mon Nov 19 2018 15:55:00 GMT+0100 (W. Europe Standard Time),1542639300248,24.853383333333333,2,mainSliderRating
201,193507,Looking at the actual life: ,58,,graduated_high_school,1542640791451,12,female,devil,no,Completely Disagree,Completely Agree,Bad,Looking at the perceived life: ,Noscorr was happy.,0,25,25,Mon Nov 19 2018 15:55:00 GMT+0100 (W. Europe Standard Time),1542639300248,24.853383333333333,3,mainSliderRating
201,383769,Looking at the actual life: ,58,,graduated_high_school,1542640791451,12,female,devil,no,Completely Disagree,Completely Agree,Good,Looking at the perceived life: ,Khamma was happy.,0,0,0,Mon Nov 19 2018 15:55:00 GMT+0100 (W. Europe Standard Time),1542639300248,24.853383333333333,4,mainSliderRating
200,175173,Looking at the actual life: ,27,,graduated_college,1542637275440,12,female,angel,german,Completely Disagree,Completely Agree,Good,Looking at the perceived life: ,Cyp was happy.,81,52,87,Mon Nov 19 2018 15:15:18 GMT+0100 (Mitteleuropäische Normalzeit),1542636918785,5.94425,1,mainSliderRating
200,65646,Looking at the actual life: ,27,,graduated_college,1542637275440,12,female,devil,german,Completely Disagree,Completely Agree,Good,Looking at the perceived life: ,Khamma was happy.,83,0,80,Mon Nov 19 2018 15:15:18 GMT+0100 (Mitteleuropäische Normalzeit),1542636918785,5.94425,2,mainSliderRating
200,46735,Looking at the actual life: ,27,,graduated_college,1542637275440,12,female,angel,german,Completely Disagree,Completely Agree,Bad,Looking at the perceived life: ,Noscorr was happy.,84,48,73,Mon Nov 19 2018 15:15:18 GMT+0100 (Mitteleuropäische Normalzeit),1542636918785,5.94425,3,mainSliderRating
200,44060,Looking at the actual life: ,27,,graduated_college,1542637275440,12,female,devil,german,Completely Disagree,Completely Agree,Bad,Looking at the perceived life: ,Merrhi was happy.,85,0,80,Mon Nov 19 2018 15:15:18 GMT+0100 (Mitteleuropäische Normalzeit),1542636918785,5.94425,4,mainSliderRating
199,199876,Looking at the actual life: ,37,,graduated_college,1542637175926,12,male,angel,german,Completely Disagree,Completely Agree,Good,Looking at the perceived life: ,Cyp was happy.,100,100,100,Mon Nov 19 2018 15:06:06 GMT+0100 (Mitteleuropäische Normalzeit),1542636366986,13.482333333333333,1,mainSliderRating
199,274987,Looking at the actual life: ,37,,graduated_college,1542637175926,12,male,devil,german,Completely Disagree,Completely Agree,Bad,Looking at the perceived life: ,Noscorr was happy.,100,0,100,Mon Nov 19 2018 15:06:06 GMT+0100 (Mitteleuropäische Normalzeit),1542636366986,13.482333333333333,2,mainSliderRating
199,89276,Looking at the actual life: ,37,,graduated_college,1542637175926,12,male,devil,german,Completely Disagree,Completely Agree,Good,Looking at the perceived life: ,Merrhi was happy.,0,0,100,Mon Nov 19 2018 15:06:06 GMT+0100 (Mitteleuropäische Normalzeit),1542636366986,13.482333333333333,3,mainSliderRating
199,104928,Looking at the actual life: ,37,,graduated_college,1542637175926,12,male,angel,german,Completely Disagree,Completely Agree,Bad,Looking at the perceived life: ,Khamma was happy.,0,100,100,Mon Nov 19 2018 15:06:06 GMT+0100 (Mitteleuropäische Normalzeit),1542636366986,13.482333333333333,4,mainSliderRating
198,119394,Looking at the actual life: ,28,,higher_degree,1542636400936,12,male,angel,,Completely Disagree,Completely Agree,Bad,Looking at the perceived life: ,Merrhi was happy.,85,0,100,Mon Nov 19 2018 14:59:36 GMT+0100 (Central European Standard Time),1542635976171,7.079416666666667,1,mainSliderRating
198,97295,Looking at the actual life: ,28,,higher_degree,1542636400936,12,male,angel,,Completely Disagree,Completely Agree,Good,Looking at the perceived life: ,Cyp was happy.,100,81,100,Mon Nov 19 2018 14:59:36 GMT+0100 (Central European Standard Time),1542635976171,7.079416666666667,2,mainSliderRating
198,77808,Looking at the actual life: ,28,,higher_degree,1542636400936,12,male,devil,,Completely Disagree,Completely Agree,Bad,Looking at the perceived life: ,Khamma was happy.,71,0,100,Mon Nov 19 2018 14:59:36 GMT+0100 (Central European Standard Time),1542635976171,7.079416666666667,3,mainSliderRating
198,84754,Looking at the actual life: ,28,,higher_degree,1542636400936,12,male,devil,,Completely Disagree,Completely Agree,Good,Looking at the perceived life: ,Noscorr was happy.,100,88,75,Mon Nov 19 2018 14:59:36 GMT+0100 (Central European Standard Time),1542635976171,7.079416666666667,4,mainSliderRating
197,144520,Looking at the actual life: ,27,,graduated_college,1542635458394,12,female,angel,german,Completely Disagree,Completely Agree,Good,Looking at the perceived life: ,Merrhi was happy.,83,29,67,Mon Nov 19 2018 14:41:46 GMT+0100 (W. Europe Standard Time),1542634906238,9.2026,1,mainSliderRating
197,94486,Looking at the actual life: ,27,,graduated_college,1542635458394,12,female,devil,german,Completely Disagree,Completely Agree,Bad,Looking at the perceived life: ,Cyp was happy.,78,4,84,Mon Nov 19 2018 14:41:46 GMT+0100 (W. Europe Standard Time),1542634906238,9.2026,2,mainSliderRating
197,132636,Looking at the actual life: ,27,,graduated_college,1542635458394,12,female,devil,german,Completely Disagree,Completely Agree,Good,Looking at the perceived life: ,Khamma was happy.,54,0,67,Mon Nov 19 2018 14:41:46 GMT+0100 (W. Europe Standard Time),1542634906238,9.2026,3,mainSliderRating
197,101926,Looking at the actual life: ,27,,graduated_college,1542635458394,12,female,angel,german,Completely Disagree,Completely Agree,Bad,Looking at the perceived life: ,Noscorr was happy.,64,24,65,Mon Nov 19 2018 14:41:46 GMT+0100 (W. Europe Standard Time),1542634906238,9.2026,4,mainSliderRating
196,336610,Looking at the actual life: ,28,"Warum wollen die weiblichen Aliens immer anderen schaden und die Männlichen haben dagegen recht ""gute"" Ambitionen?",graduated_college,1542634904568,12,female,angel,german,Completely Disagree,Completely Agree,Good,Looking at the perceived life: ,Noscorr was happy.,13,19,71,Mon Nov 19 2018 14:26:31 GMT+0100 (W. Europe Standard Time),1542633991016,15.225866666666667,1,mainSliderRating
196,127372,Looking at the actual life: ,28,"Warum wollen die weiblichen Aliens immer anderen schaden und die Männlichen haben dagegen recht ""gute"" Ambitionen?",graduated_college,1542634904568,12,female,devil,german,Completely Disagree,Completely Agree,Bad,Looking at the perceived life: ,Khamma was happy.,6,0,23,Mon Nov 19 2018 14:26:31 GMT+0100 (W. Europe Standard Time),1542633991016,15.225866666666667,2,mainSliderRating
196,79940,Looking at the actual life: ,28,"Warum wollen die weiblichen Aliens immer anderen schaden und die Männlichen haben dagegen recht ""gute"" Ambitionen?",graduated_college,1542634904568,12,female,angel,german,Completely Disagree,Completely Agree,Bad,Looking at the perceived life: ,Cyp was happy.,93,69,93,Mon Nov 19 2018 14:26:31 GMT+0100 (W. Europe Standard Time),1542633991016,15.225866666666667,3,mainSliderRating
196,101328,Looking at the actual life: ,28,"Warum wollen die weiblichen Aliens immer anderen schaden und die Männlichen haben dagegen recht ""gute"" Ambitionen?",graduated_college,1542634904568,12,female,devil,german,Completely Disagree,Completely Agree,Good,Looking at the perceived life: ,Merrhi was happy.,100,99,89,Mon Nov 19 2018 14:26:31 GMT+0100 (W. Europe Standard Time),1542633991016,15.225866666666667,4,mainSliderRating
195,127590,Looking at the actual life: ,42,,graduated_high_school,1542634558720,12,female,angel,german,Completely Disagree,Completely Agree,Good,Looking at the perceived life: ,Merrhi was happy.,56,66,62,Mon Nov 19 2018 14:29:49 GMT+0100 (W. Europe Standard Time),1542634189368,6.155866666666666,1,mainSliderRating
195,86408,Looking at the actual life: ,42,,graduated_high_school,1542634558720,12,female,devil,german,Completely Disagree,Completely Agree,Good,Looking at the perceived life: ,Khamma was happy.,67,64,69,Mon Nov 19 2018 14:29:49 GMT+0100 (W. Europe Standard Time),1542634189368,6.155866666666666,2,mainSliderRating
195,62698,Looking at the actual life: ,42,,graduated_high_school,1542634558720,12,female,angel,german,Completely Disagree,Completely Agree,Bad,Looking at the perceived life: ,Noscorr was happy.,72,75,72,Mon Nov 19 2018 14:29:49 GMT+0100 (W. Europe Standard Time),1542634189368,6.155866666666666,3,mainSliderRating
195,46880,Looking at the actual life: ,42,,graduated_high_school,1542634558720,12,female,devil,german,Completely Disagree,Completely Agree,Bad,Looking at the perceived life: ,Cyp was happy.,67,70,69,Mon Nov 19 2018 14:29:49 GMT+0100 (W. Europe Standard Time),1542634189368,6.155866666666666,4,mainSliderRating
194,119662,Looking at the actual life: ,41,,higher_degree,1542633875776,12,male,angel,german,Completely Disagree,Completely Agree,Good,Looking at the perceived life: ,Merrhi was happy.,75,74,74,Mon Nov 19 2018 14:17:52 GMT+0100 (Mitteleuropäische Normalzeit),1542633472886,6.714833333333333,1,mainSliderRating
194,65569,Looking at the actual life: ,41,,higher_degree,1542633875776,12,male,devil,german,Completely Disagree,Completely Agree,Bad,Looking at the perceived life: ,Cyp was happy.,81,74,77,Mon Nov 19 2018 14:17:52 GMT+0100 (Mitteleuropäische Normalzeit),1542633472886,6.714833333333333,2,mainSliderRating
194,70735,Looking at the actual life: ,41,,higher_degree,1542633875776,12,male,devil,german,Completely Disagree,Completely Agree,Good,Looking at the perceived life: ,Khamma was happy.,77,80,77,Mon Nov 19 2018 14:17:52 GMT+0100 (Mitteleuropäische Normalzeit),1542633472886,6.714833333333333,3,mainSliderRating
194,102917,Looking at the actual life: ,41,,higher_degree,1542633875776,12,male,angel,german,Completely Disagree,Completely Agree,Bad,Looking at the perceived life: ,Noscorr was happy.,80,78,78,Mon Nov 19 2018 14:17:52 GMT+0100 (Mitteleuropäische Normalzeit),1542633472886,6.714833333333333,4,mainSliderRating
193,277486,Looking at the actual life: ,28,"I really had trouble answering these questions because there is so much we don't know. They're aliens after all and their social conditions/constraints or the society they live in could be totally different from the ones that we know. \nHowever, there is only one question that really deals with finding out how the participants ""perceive happiness in others"". And that is the first one where you ask if the alien is happy. You basically already give us the answer: all of them are happy with their life and with what they are doing. So, by knowing that, we can only agree. Because that's all we know. \nThe other two questions are on one side difficult and on the other side they're very simple. In my opinion, I can't judge the life of other people (or aliens). If they had the feeling that their life was good, if they didn't experience sadness or lonliness or other bad feelings, then they lived a good life... no matter what the results of this life are. Even if their life results in bad conditions for others they still lived a good and fulfilling life. The fact that the outcome of their life makes the life of other people worse doesn't change the quality of their own life. \nIn my eyes, only the person/alien living the life can answer the question of whether this life is good or bad.",graduated_college,1542633720058,12,male,angel,German,Completely Disagree,Completely Agree,Good,Looking at the perceived life: ,Merrhi was happy.,100,100,100,Mon Nov 19 2018 13:38:53 GMT+0100 (W. Europe Standard Time),1542631133010,43.117466666666665,1,mainSliderRating
193,182128,Looking at the actual life: ,28,"I really had trouble answering these questions because there is so much we don't know. They're aliens after all and their social conditions/constraints or the society they live in could be totally different from the ones that we know. \nHowever, there is only one question that really deals with finding out how the participants ""perceive happiness in others"". And that is the first one where you ask if the alien is happy. You basically already give us the answer: all of them are happy with their life and with what they are doing. So, by knowing that, we can only agree. Because that's all we know. \nThe other two questions are on one side difficult and on the other side they're very simple. In my opinion, I can't judge the life of other people (or aliens). If they had the feeling that their life was good, if they didn't experience sadness or lonliness or other bad feelings, then they lived a good life... no matter what the results of this life are. Even if their life results in bad conditions for others they still lived a good and fulfilling life. The fact that the outcome of their life makes the life of other people worse doesn't change the quality of their own life. \nIn my eyes, only the person/alien living the life can answer the question of whether this life is good or bad.",graduated_college,1542633720058,12,male,devil,German,Completely Disagree,Completely Agree,Good,Looking at the perceived life: ,Cyp was happy.,100,100,100,Mon Nov 19 2018 13:38:53 GMT+0100 (W. Europe Standard Time),1542631133010,43.117466666666665,2,mainSliderRating
193,95044,Looking at the actual life: ,28,"I really had trouble answering these questions because there is so much we don't know. They're aliens after all and their social conditions/constraints or the society they live in could be totally different from the ones that we know. \nHowever, there is only one question that really deals with finding out how the participants ""perceive happiness in others"". And that is the first one where you ask if the alien is happy. You basically already give us the answer: all of them are happy with their life and with what they are doing. So, by knowing that, we can only agree. Because that's all we know. \nThe other two questions are on one side difficult and on the other side they're very simple. In my opinion, I can't judge the life of other people (or aliens). If they had the feeling that their life was good, if they didn't experience sadness or lonliness or other bad feelings, then they lived a good life... no matter what the results of this life are. Even if their life results in bad conditions for others they still lived a good and fulfilling life. The fact that the outcome of their life makes the life of other people worse doesn't change the quality of their own life. \nIn my eyes, only the person/alien living the life can answer the question of whether this life is good or bad.",graduated_college,1542633720058,12,male,devil,German,Completely Disagree,Completely Agree,Bad,Looking at the perceived life: ,Khamma was happy.,100,100,100,Mon Nov 19 2018 13:38:53 GMT+0100 (W. Europe Standard Time),1542631133010,43.117466666666665,3,mainSliderRating
193,53640,Looking at the actual life: ,28,"I really had trouble answering these questions because there is so much we don't know. They're aliens after all and their social conditions/constraints or the society they live in could be totally different from the ones that we know. \nHowever, there is only one question that really deals with finding out how the participants ""perceive happiness in others"". And that is the first one where you ask if the alien is happy. You basically already give us the answer: all of them are happy with their life and with what they are doing. So, by knowing that, we can only agree. Because that's all we know. \nThe other two questions are on one side difficult and on the other side they're very simple. In my opinion, I can't judge the life of other people (or aliens). If they had the feeling that their life was good, if they didn't experience sadness or lonliness or other bad feelings, then they lived a good life... no matter what the results of this life are. Even if their life results in bad conditions for others they still lived a good and fulfilling life. The fact that the outcome of their life makes the life of other people worse doesn't change the quality of their own life. \nIn my eyes, only the person/alien living the life can answer the question of whether this life is good or bad.",graduated_college,1542633720058,12,male,angel,German,Completely Disagree,Completely Agree,Bad,Looking at the perceived life: ,Noscorr was happy.,100,100,100,Mon Nov 19 2018 13:38:53 GMT+0100 (W. Europe Standard Time),1542631133010,43.117466666666665,4,mainSliderRating
192,339642,Looking at the actual life: ,58,,graduated_college,1542632622586,12,female,devil,German,Completely Disagree,Completely Agree,Bad,Looking at the perceived life: ,Cyp was happy.,51,77,6,Mon Nov 19 2018 13:43:44 GMT+0100 (W. Europe Standard Time),1542631424492,19.968233333333334,1,mainSliderRating
192,215256,Looking at the actual life: ,58,,graduated_college,1542632622586,12,female,angel,German,Completely Disagree,Completely Agree,Bad,Looking at the perceived life: ,Khamma was happy.,100,0,100,Mon Nov 19 2018 13:43:44 GMT+0100 (W. Europe Standard Time),1542631424492,19.968233333333334,2,mainSliderRating
192,294581,Looking at the actual life: ,58,,graduated_college,1542632622586,12,female,devil,German,Completely Disagree,Completely Agree,Good,Looking at the perceived life: ,Merrhi was happy.,100,100,100,Mon Nov 19 2018 13:43:44 GMT+0100 (W. Europe Standard Time),1542631424492,19.968233333333334,3,mainSliderRating
192,189875,Looking at the actual life: ,58,,graduated_college,1542632622586,12,female,angel,German,Completely Disagree,Completely Agree,Good,Looking at the perceived life: ,Noscorr was happy.,100,100,100,Mon Nov 19 2018 13:43:44 GMT+0100 (W. Europe Standard Time),1542631424492,19.968233333333334,4,mainSliderRating
191,197976,Looking at the actual life: ,54,,graduated_college,1542632479608,12,female,devil,german,Completely Disagree,Completely Agree,Bad,Looking at the perceived life: ,Cyp was happy.,22,52,40,Mon Nov 19 2018 13:52:22 GMT+0100 (W. Europe Standard Time),1542631942676,8.948866666666667,1,mainSliderRating
191,144620,Looking at the actual life: ,54,,graduated_college,1542632479608,12,female,angel,german,Completely Disagree,Completely Agree,Bad,Looking at the perceived life: ,Khamma was happy.,36,48,48,Mon Nov 19 2018 13:52:22 GMT+0100 (W. Europe Standard Time),1542631942676,8.948866666666667,2,mainSliderRating
191,111420,Looking at the actual life: ,54,,graduated_college,1542632479608,12,female,devil,german,Completely Disagree,Completely Agree,Good,Looking at the perceived life: ,Noscorr was happy.,49,48,49,Mon Nov 19 2018 13:52:22 GMT+0100 (W. Europe Standard Time),1542631942676,8.948866666666667,3,mainSliderRating
191,38700,Looking at the actual life: ,54,,graduated_college,1542632479608,12,female,angel,german,Completely Disagree,Completely Agree,Good,Looking at the perceived life: ,Merrhi was happy.,52,47,52,Mon Nov 19 2018 13:52:22 GMT+0100 (W. Europe Standard Time),1542631942676,8.948866666666667,4,mainSliderRating
190,102416,Looking at the actual life: ,27,,higher_degree,1542632405810,12,male,angel,"Portuguese, English",Completely Disagree,Completely Agree,Bad,Looking at the perceived life: ,Merrhi was happy.,100,100,100,Mon Nov 19 2018 13:54:53 GMT+0100 (Horário Padrão da Europa Central),1542632093370,5.207333333333334,1,mainSliderRating
190,49813,Looking at the actual life: ,27,,higher_degree,1542632405810,12,male,angel,"Portuguese, English",Completely Disagree,Completely Agree,Good,Looking at the perceived life: ,Noscorr was happy.,84,100,100,Mon Nov 19 2018 13:54:53 GMT+0100 (Horário Padrão da Europa Central),1542632093370,5.207333333333334,2,mainSliderRating
190,53006,Looking at the actual life: ,27,,higher_degree,1542632405810,12,male,devil,"Portuguese, English",Completely Disagree,Completely Agree,Good,Looking at the perceived life: ,Cyp was happy.,100,100,100,Mon Nov 19 2018 13:54:53 GMT+0100 (Horário Padrão da Europa Central),1542632093370,5.207333333333334,3,mainSliderRating
190,56719,Looking at the actual life: ,27,,higher_degree,1542632405810,12,male,devil,"Portuguese, English",Completely Disagree,Completely Agree,Bad,Looking at the perceived life: ,Khamma was happy.,100,100,100,Mon Nov 19 2018 13:54:53 GMT+0100 (Horário Padrão da Europa Central),1542632093370,5.207333333333334,4,mainSliderRating
189,116725,Looking at the actual life: ,51,,graduated_high_school,1542631908993,12,female,devil,,Completely Disagree,Completely Agree,Good,Looking at the perceived life: ,Khamma was happy.,49,49,17,Mon Nov 19 2018 13:44:46 GMT+0100 (Mitteleuropäische Normalzeit),1542631486355,7.043966666666667,1,mainSliderRating
189,103042,Looking at the actual life: ,51,,graduated_high_school,1542631908993,12,female,angel,,Completely Disagree,Completely Agree,Bad,Looking at the perceived life: ,Merrhi was happy.,28,72,17,Mon Nov 19 2018 13:44:46 GMT+0100 (Mitteleuropäische Normalzeit),1542631486355,7.043966666666667,2,mainSliderRating
189,82313,Looking at the actual life: ,51,,graduated_high_school,1542631908993,12,female,angel,,Completely Disagree,Completely Agree,Good,Looking at the perceived life: ,Noscorr was happy.,65,57,51,Mon Nov 19 2018 13:44:46 GMT+0100 (Mitteleuropäische Normalzeit),1542631486355,7.043966666666667,3,mainSliderRating
189,62161,Looking at the actual life: ,51,,graduated_high_school,1542631908993,12,female,devil,,Completely Disagree,Completely Agree,Bad,Looking at the perceived life: ,Cyp was happy.,56,81,56,Mon Nov 19 2018 13:44:46 GMT+0100 (Mitteleuropäische Normalzeit),1542631486355,7.043966666666667,4,mainSliderRating
188,17593,Looking at the actual life: ,20,,graduated_high_school,1542631736342,12,female,angel,"Polish, German",Completely Disagree,Completely Agree,Good,Looking at the perceived life: ,Merrhi was happy.,87,77,84,Mon Nov 19 2018 13:45:48 GMT+0100 (Mitteleuropäische Zeit),1542631548659,3.12805,1,mainSliderRating
188,68119,Looking at the actual life: ,20,,graduated_high_school,1542631736342,12,female,angel,"Polish, German",Completely Disagree,Completely Agree,Bad,Looking at the perceived life: ,Khamma was happy.,70,37,82,Mon Nov 19 2018 13:45:48 GMT+0100 (Mitteleuropäische Zeit),1542631548659,3.12805,2,mainSliderRating
188,14607,Looking at the actual life: ,20,,graduated_high_school,1542631736342,12,female,devil,"Polish, German",Completely Disagree,Completely Agree,Good,Looking at the perceived life: ,Noscorr was happy.,78,41,78,Mon Nov 19 2018 13:45:48 GMT+0100 (Mitteleuropäische Zeit),1542631548659,3.12805,3,mainSliderRating
188,55894,Looking at the actual life: ,20,,graduated_high_school,1542631736342,12,female,devil,"Polish, German",Completely Disagree,Completely Agree,Bad,Looking at the perceived life: ,Cyp was happy.,61,42,74,Mon Nov 19 2018 13:45:48 GMT+0100 (Mitteleuropäische Zeit),1542631548659,3.12805,4,mainSliderRating
187,171352,Looking at the actual life: ,46,,higher_degree,1542631567830,12,female,angel,german,Completely Disagree,Completely Agree,Bad,Looking at the perceived life: ,Merrhi was happy.,99,81,100,Mon Nov 19 2018 13:38:25 GMT+0100 (W. Europe Standard Time),1542631105051,7.712983333333334,1,mainSliderRating
187,71933,Looking at the actual life: ,46,,higher_degree,1542631567830,12,female,devil,german,Completely Disagree,Completely Agree,Bad,Looking at the perceived life: ,Khamma was happy.,100,0,100,Mon Nov 19 2018 13:38:25 GMT+0100 (W. Europe Standard Time),1542631105051,7.712983333333334,2,mainSliderRating
187,101928,Looking at the actual life: ,46,,higher_degree,1542631567830,12,female,angel,german,Completely Disagree,Completely Agree,Good,Looking at the perceived life: ,Noscorr was happy.,100,52,100,Mon Nov 19 2018 13:38:25 GMT+0100 (W. Europe Standard Time),1542631105051,7.712983333333334,3,mainSliderRating
187,90123,Looking at the actual life: ,46,,higher_degree,1542631567830,12,female,devil,german,Completely Disagree,Completely Agree,Good,Looking at the perceived life: ,Cyp was happy.,100,98,100,Mon Nov 19 2018 13:38:25 GMT+0100 (W. Europe Standard Time),1542631105051,7.712983333333334,4,mainSliderRating
186,89942,Looking at the actual life: ,31,,,1542631187606,12,female,angel,German,Completely Disagree,Completely Agree,Good,Looking at the perceived life: ,Cyp was happy.,100,11,100,Mon Nov 19 2018 13:33:51 GMT+0100 (W. Europe Standard Time),1542630831268,5.9389666666666665,1,mainSliderRating
186,104684,Looking at the actual life: ,31,,,1542631187606,12,female,devil,German,Completely Disagree,Completely Agree,Good,Looking at the perceived life: ,Khamma was happy.,100,0,100,Mon Nov 19 2018 13:33:51 GMT+0100 (W. Europe Standard Time),1542630831268,5.9389666666666665,2,mainSliderRating
186,54516,Looking at the actual life: ,31,,,1542631187606,12,female,devil,German,Completely Disagree,Completely Agree,Bad,Looking at the perceived life: ,Merrhi was happy.,100,0,100,Mon Nov 19 2018 13:33:51 GMT+0100 (W. Europe Standard Time),1542630831268,5.9389666666666665,3,mainSliderRating
186,72758,Looking at the actual life: ,31,,,1542631187606,12,female,angel,German,Completely Disagree,Completely Agree,Bad,Looking at the perceived life: ,Noscorr was happy.,100,75,100,Mon Nov 19 2018 13:33:51 GMT+0100 (W. Europe Standard Time),1542630831268,5.9389666666666665,4,mainSliderRating
185,43683,Looking at the actual life: ,45,,higher_degree,1542630954678,12,female,devil,english,Completely Disagree,Completely Agree,Good,Looking at the perceived life: ,Khamma was happy.,91,0,90,Mon Nov 19 2018 12:32:53 GMT+0000 (GMT),1542630773548,3.0188333333333333,1,mainSliderRating
185,34335,Looking at the actual life: ,45,,higher_degree,1542630954678,12,female,devil,english,Completely Disagree,Completely Agree,Bad,Looking at the perceived life: ,Cyp was happy.,87,31,85,Mon Nov 19 2018 12:32:53 GMT+0000 (GMT),1542630773548,3.0188333333333333,2,mainSliderRating
185,46428,Looking at the actual life: ,45,,higher_degree,1542630954678,12,female,angel,english,Completely Disagree,Completely Agree,Good,Looking at the perceived life: ,Noscorr was happy.,57,47,85,Mon Nov 19 2018 12:32:53 GMT+0000 (GMT),1542630773548,3.0188333333333333,3,mainSliderRating
185,33086,Looking at the actual life: ,45,,higher_degree,1542630954678,12,female,angel,english,Completely Disagree,Completely Agree,Bad,Looking at the perceived life: ,Merrhi was happy.,74,88,85,Mon Nov 19 2018 12:32:53 GMT+0000 (GMT),1542630773548,3.0188333333333333,4,mainSliderRating
184,100795,Looking at the actual life: ,22,,graduated_high_school,1542623458278,12,male,angel,german,Completely Disagree,Completely Agree,Bad,Looking at the perceived life: ,Noscorr was happy.,91,93,93,Mon Nov 19 2018 11:24:45 GMT+0100 (CET),1542623085666,6.2102,1,mainSliderRating
184,84446,Looking at the actual life: ,22,,graduated_high_school,1542623458278,12,male,devil,german,Completely Disagree,Completely Agree,Good,Looking at the perceived life: ,Cyp was happy.,97,93,96,Mon Nov 19 2018 11:24:45 GMT+0100 (CET),1542623085666,6.2102,2,mainSliderRating
184,65215,Looking at the actual life: ,22,,graduated_high_school,1542623458278,12,male,devil,german,Completely Disagree,Completely Agree,Bad,Looking at the perceived life: ,Khamma was happy.,97,2,95,Mon Nov 19 2018 11:24:45 GMT+0100 (CET),1542623085666,6.2102,3,mainSliderRating
184,85735,Looking at the actual life: ,22,,graduated_high_school,1542623458278,12,male,angel,german,Completely Disagree,Completely Agree,Good,Looking at the perceived life: ,Merrhi was happy.,97,96,97,Mon Nov 19 2018 11:24:45 GMT+0100 (CET),1542623085666,6.2102,4,mainSliderRating
183,114182,Looking at the actual life: ,20,,graduated_high_school,1542580202421,12,male,devil,German,Completely Disagree,Completely Agree,Bad,Looking at the perceived life: ,Cyp was happy.,58,18,100,Sun Nov 18 2018 23:22:53 GMT+0100 (Mitteleuropäische Normalzeit),1542579773772,7.14415,1,mainSliderRating
183,100712,Looking at the actual life: ,20,,graduated_high_school,1542580202421,12,male,angel,German,Completely Disagree,Completely Agree,Good,Looking at the perceived life: ,Khamma was happy.,78,83,100,Sun Nov 18 2018 23:22:53 GMT+0100 (Mitteleuropäische Normalzeit),1542579773772,7.14415,2,mainSliderRating
183,96678,Looking at the actual life: ,20,,graduated_high_school,1542580202421,12,male,devil,German,Completely Disagree,Completely Agree,Good,Looking at the perceived life: ,Merrhi was happy.,75,0,100,Sun Nov 18 2018 23:22:53 GMT+0100 (Mitteleuropäische Normalzeit),1542579773772,7.14415,3,mainSliderRating
183,71471,Looking at the actual life: ,20,,graduated_high_school,1542580202421,12,male,angel,German,Completely Disagree,Completely Agree,Bad,Looking at the perceived life: ,Noscorr was happy.,63,30,100,Sun Nov 18 2018 23:22:53 GMT+0100 (Mitteleuropäische Normalzeit),1542579773772,7.14415,4,mainSliderRating
180,553608,Looking at the actual life: ,54,,higher_degree,1542561415242,12,female,devil,German,Completely Disagree,Completely Agree,Bad,Looking at the perceived life: ,Khamma was happy.,0,0,100,Sun Nov 18 2018 17:58:05 GMT+0100 (Mitteleuropäische Normalzeit),1542560285397,18.83075,1,mainSliderRating
180,195209,Looking at the actual life: ,54,,higher_degree,1542561415242,12,female,angel,German,Completely Disagree,Completely Agree,Bad,Looking at the perceived life: ,Cyp was happy.,100,100,100,Sun Nov 18 2018 17:58:05 GMT+0100 (Mitteleuropäische Normalzeit),1542560285397,18.83075,2,mainSliderRating
180,134234,Looking at the actual life: ,54,,higher_degree,1542561415242,12,female,angel,German,Completely Disagree,Completely Agree,Good,Looking at the perceived life: ,Merrhi was happy.,100,100,100,Sun Nov 18 2018 17:58:05 GMT+0100 (Mitteleuropäische Normalzeit),1542560285397,18.83075,3,mainSliderRating
180,173374,Looking at the actual life: ,54,,higher_degree,1542561415242,12,female,devil,German,Completely Disagree,Completely Agree,Good,Looking at the perceived life: ,Noscorr was happy.,100,100,100,Sun Nov 18 2018 17:58:05 GMT+0100 (Mitteleuropäische Normalzeit),1542560285397,18.83075,4,mainSliderRating
179,84898,Looking at the actual life: ,19,,graduated_high_school,1542547113424,12,female,angel,German,Completely Disagree,Completely Agree,Good,Looking at the perceived life: ,Cyp was happy.,100,71,91,Sun Nov 18 2018 14:13:19 GMT+0100 (Mitteleuropäische Normalzeit),1542546799585,5.23065,1,mainSliderRating
179,71227,Looking at the actual life: ,19,,graduated_high_school,1542547113424,12,female,devil,German,Completely Disagree,Completely Agree,Good,Looking at the perceived life: ,Merrhi was happy.,71,5,76,Sun Nov 18 2018 14:13:19 GMT+0100 (Mitteleuropäische Normalzeit),1542546799585,5.23065,2,mainSliderRating
179,71961,Looking at the actual life: ,19,,graduated_high_school,1542547113424,12,female,angel,German,Completely Disagree,Completely Agree,Bad,Looking at the perceived life: ,Khamma was happy.,100,26,90,Sun Nov 18 2018 14:13:19 GMT+0100 (Mitteleuropäische Normalzeit),1542546799585,5.23065,3,mainSliderRating
179,49140,Looking at the actual life: ,19,,graduated_high_school,1542547113424,12,female,devil,German,Completely Disagree,Completely Agree,Bad,Looking at the perceived life: ,Noscorr was happy.,100,35,77,Sun Nov 18 2018 14:13:19 GMT+0100 (Mitteleuropäische Normalzeit),1542546799585,5.23065,4,mainSliderRating
178,127509,Looking at the actual life: ,23,,higher_degree,1542519201675,12,male,angel,,Completely Disagree,Completely Agree,Good,Looking at the perceived life: ,Noscorr was happy.,74,19,94,Sun Nov 18 2018 13:25:16 GMT+0800 (WITA),1542518716300,8.089583333333334,1,mainSliderRating
178,105067,Looking at the actual life: ,23,,higher_degree,1542519201675,12,male,angel,,Completely Disagree,Completely Agree,Bad,Looking at the perceived life: ,Khamma was happy.,88,67,96,Sun Nov 18 2018 13:25:16 GMT+0800 (WITA),1542518716300,8.089583333333334,2,mainSliderRating
178,101002,Looking at the actual life: ,23,,higher_degree,1542519201675,12,male,devil,,Completely Disagree,Completely Agree,Bad,Looking at the perceived life: ,Merrhi was happy.,56,32,96,Sun Nov 18 2018 13:25:16 GMT+0800 (WITA),1542518716300,8.089583333333334,3,mainSliderRating
178,98137,Looking at the actual life: ,23,,higher_degree,1542519201675,12,male,devil,,Completely Disagree,Completely Agree,Good,Looking at the perceived life: ,Cyp was happy.,84,71,89,Sun Nov 18 2018 13:25:16 GMT+0800 (WITA),1542518716300,8.089583333333334,4,mainSliderRating
177,456576,Looking at the actual life: ,25,,graduated_high_school,1542456794475,12,male,angel,German,Completely Disagree,Completely Agree,Bad,Looking at the perceived life: ,Noscorr was happy.,100,38,76,Sat Nov 17 2018 12:55:22 GMT+0100 (Mitteleuropäische Normalzeit),1542455722782,17.86155,1,mainSliderRating
177,248860,Looking at the actual life: ,25,,graduated_high_school,1542456794475,12,male,angel,German,Completely Disagree,Completely Agree,Good,Looking at the perceived life: ,Merrhi was happy.,100,86,85,Sat Nov 17 2018 12:55:22 GMT+0100 (Mitteleuropäische Normalzeit),1542455722782,17.86155,2,mainSliderRating
177,114585,Looking at the actual life: ,25,,graduated_high_school,1542456794475,12,male,devil,German,Completely Disagree,Completely Agree,Bad,Looking at the perceived life: ,Khamma was happy.,100,0,51,Sat Nov 17 2018 12:55:22 GMT+0100 (Mitteleuropäische Normalzeit),1542455722782,17.86155,3,mainSliderRating
177,92224,Looking at the actual life: ,25,,graduated_high_school,1542456794475,12,male,devil,German,Completely Disagree,Completely Agree,Good,Looking at the perceived life: ,Cyp was happy.,100,82,57,Sat Nov 17 2018 12:55:22 GMT+0100 (Mitteleuropäische Normalzeit),1542455722782,17.86155,4,mainSliderRating
176,54469,Looking at the actual life: ,25,,graduated_high_school,1542454751228,12,male,devil,"German, Russian ",Completely Disagree,Completely Agree,Good,Looking at the perceived life: ,Noscorr was happy.,100,80,100,Sat Nov 17 2018 12:35:34 GMT+0100 (Central European Standard Time),1542454534912,3.6052666666666666,1,mainSliderRating
176,49651,Looking at the actual life: ,25,,graduated_high_school,1542454751228,12,male,angel,"German, Russian ",Completely Disagree,Completely Agree,Bad,Looking at the perceived life: ,Cyp was happy.,100,71,91,Sat Nov 17 2018 12:35:34 GMT+0100 (Central European Standard Time),1542454534912,3.6052666666666666,2,mainSliderRating
176,32903,Looking at the actual life: ,25,,graduated_high_school,1542454751228,12,male,angel,"German, Russian ",Completely Disagree,Completely Agree,Good,Looking at the perceived life: ,Khamma was happy.,100,100,100,Sat Nov 17 2018 12:35:34 GMT+0100 (Central European Standard Time),1542454534912,3.6052666666666666,3,mainSliderRating
176,47333,Looking at the actual life: ,25,,graduated_high_school,1542454751228,12,male,devil,"German, Russian ",Completely Disagree,Completely Agree,Bad,Looking at the perceived life: ,Merrhi was happy.,80,0,9,Sat Nov 17 2018 12:35:34 GMT+0100 (Central European Standard Time),1542454534912,3.6052666666666666,4,mainSliderRating
175,157651,Looking at the actual life: ,22,I know what you did last summer...,graduated_high_school,1542403916124,12,female,angel,german,Completely Disagree,Completely Agree,Good,Looking at the perceived life: ,Noscorr was happy.,100,30,100,Fri Nov 16 2018 22:19:55 GMT+0100 (Mitteleuropäische Normalzeit),1542403195946,12.002966666666667,1,mainSliderRating
175,107386,Looking at the actual life: ,22,I know what you did last summer...,graduated_high_school,1542403916124,12,female,devil,german,Completely Disagree,Completely Agree,Good,Looking at the perceived life: ,Merrhi was happy.,100,8,95,Fri Nov 16 2018 22:19:55 GMT+0100 (Mitteleuropäische Normalzeit),1542403195946,12.002966666666667,2,mainSliderRating
175,111324,Looking at the actual life: ,22,I know what you did last summer...,graduated_high_school,1542403916124,12,female,devil,german,Completely Disagree,Completely Agree,Bad,Looking at the perceived life: ,Cyp was happy.,94,0,100,Fri Nov 16 2018 22:19:55 GMT+0100 (Mitteleuropäische Normalzeit),1542403195946,12.002966666666667,3,mainSliderRating
175,62923,Looking at the actual life: ,22,I know what you did last summer...,graduated_high_school,1542403916124,12,female,angel,german,Completely Disagree,Completely Agree,Bad,Looking at the perceived life: ,Khamma was happy.,96,100,100,Fri Nov 16 2018 22:19:55 GMT+0100 (Mitteleuropäische Normalzeit),1542403195946,12.002966666666667,4,mainSliderRating
174,89335,Looking at the actual life: ,22,,graduated_high_school,1542394138708,12,female,angel,German,Completely Disagree,Completely Agree,Bad,Looking at the perceived life: ,Noscorr was happy.,100,13,99,Fri Nov 16 2018 19:44:17 GMT+0100 (CET),1542393857528,4.686333333333334,1,mainSliderRating
174,62015,Looking at the actual life: ,22,,graduated_high_school,1542394138708,12,female,devil,German,Completely Disagree,Completely Agree,Good,Looking at the perceived life: ,Cyp was happy.,89,21,89,Fri Nov 16 2018 19:44:17 GMT+0100 (CET),1542393857528,4.686333333333334,2,mainSliderRating
174,51160,Looking at the actual life: ,22,,graduated_high_school,1542394138708,12,female,angel,German,Completely Disagree,Completely Agree,Good,Looking at the perceived life: ,Merrhi was happy.,98,100,100,Fri Nov 16 2018 19:44:17 GMT+0100 (CET),1542393857528,4.686333333333334,3,mainSliderRating
174,41735,Looking at the actual life: ,22,,graduated_high_school,1542394138708,12,female,devil,German,Completely Disagree,Completely Agree,Bad,Looking at the perceived life: ,Khamma was happy.,100,0,100,Fri Nov 16 2018 19:44:17 GMT+0100 (CET),1542393857528,4.686333333333334,4,mainSliderRating
173,127908,Looking at the actual life: ,20,,graduated_high_school,1542377027204,12,female,devil,german,Completely Disagree,Completely Agree,Bad,Looking at the perceived life: ,Cyp was happy.,100,41,81,Fri Nov 16 2018 13:53:57 GMT+0000 (GMT),1542376437142,9.834366666666666,1,mainSliderRating
173,75210,Looking at the actual life: ,20,,graduated_high_school,1542377027204,12,female,angel,german,Completely Disagree,Completely Agree,Good,Looking at the perceived life: ,Merrhi was happy.,100,41,86,Fri Nov 16 2018 13:53:57 GMT+0000 (GMT),1542376437142,9.834366666666666,2,mainSliderRating
173,83672,Looking at the actual life: ,20,,graduated_high_school,1542377027204,12,female,angel,german,Completely Disagree,Completely Agree,Bad,Looking at the perceived life: ,Noscorr was happy.,100,36,85,Fri Nov 16 2018 13:53:57 GMT+0000 (GMT),1542376437142,9.834366666666666,3,mainSliderRating
173,77428,Looking at the actual life: ,20,,graduated_high_school,1542377027204,12,female,devil,german,Completely Disagree,Completely Agree,Good,Looking at the perceived life: ,Khamma was happy.,100,34,84,Fri Nov 16 2018 13:53:57 GMT+0000 (GMT),1542376437142,9.834366666666666,4,mainSliderRating
172,121265,Looking at the actual life: ,22,,graduated_high_school,1542368492342,12,male,devil,German,Completely Disagree,Completely Agree,Good,Looking at the perceived life: ,Khamma was happy.,89,8,83,Fri Nov 16 2018 11:41:54 GMT+0100 (Central European Standard Time),1542364914638,59.6284,1,mainSliderRating
172,52717,Looking at the actual life: ,22,,graduated_high_school,1542368492342,12,male,angel,German,Completely Disagree,Completely Agree,Good,Looking at the perceived life: ,Merrhi was happy.,84,61,85,Fri Nov 16 2018 11:41:54 GMT+0100 (Central European Standard Time),1542364914638,59.6284,2,mainSliderRating
172,47206,Looking at the actual life: ,22,,graduated_high_school,1542368492342,12,male,angel,German,Completely Disagree,Completely Agree,Bad,Looking at the perceived life: ,Cyp was happy.,87,31,84,Fri Nov 16 2018 11:41:54 GMT+0100 (Central European Standard Time),1542364914638,59.6284,3,mainSliderRating
172,45358,Looking at the actual life: ,22,,graduated_high_school,1542368492342,12,male,devil,German,Completely Disagree,Completely Agree,Bad,Looking at the perceived life: ,Noscorr was happy.,82,56,83,Fri Nov 16 2018 11:41:54 GMT+0100 (Central European Standard Time),1542364914638,59.6284,4,mainSliderRating
170,86166,Looking at the actual life: ,,"It might be worth getting the text checked by a native speaker. Occassionally, sentences were worded weirdly, included colloquial terms (like 'cause' instead of 'because'), or ungrammatical terms (like 'somebodies' instead of 'somebody's' at the first page)",graduated_college,1542357290017,12,female,angel,German,Completely Disagree,Completely Agree,Good,Looking at the perceived life: ,Khamma was happy.,100,100,100,Fri Nov 16 2018 09:27:00 GMT+0100 (Mitteleuropäische Normalzeit),1542356820579,7.823966666666666,1,mainSliderRating
170,76196,Looking at the actual life: ,,"It might be worth getting the text checked by a native speaker. Occassionally, sentences were worded weirdly, included colloquial terms (like 'cause' instead of 'because'), or ungrammatical terms (like 'somebodies' instead of 'somebody's' at the first page)",graduated_college,1542357290017,12,female,devil,German,Completely Disagree,Completely Agree,Good,Looking at the perceived life: ,Merrhi was happy.,59,0,38,Fri Nov 16 2018 09:27:00 GMT+0100 (Mitteleuropäische Normalzeit),1542356820579,7.823966666666666,2,mainSliderRating
170,70858,Looking at the actual life: ,,"It might be worth getting the text checked by a native speaker. Occassionally, sentences were worded weirdly, included colloquial terms (like 'cause' instead of 'because'), or ungrammatical terms (like 'somebodies' instead of 'somebody's' at the first page)",graduated_college,1542357290017,12,female,devil,German,Completely Disagree,Completely Agree,Bad,Looking at the perceived life: ,Noscorr was happy.,63,75,61,Fri Nov 16 2018 09:27:00 GMT+0100 (Mitteleuropäische Normalzeit),1542356820579,7.823966666666666,3,mainSliderRating
170,63641,Looking at the actual life: ,,"It might be worth getting the text checked by a native speaker. Occassionally, sentences were worded weirdly, included colloquial terms (like 'cause' instead of 'because'), or ungrammatical terms (like 'somebodies' instead of 'somebody's' at the first page)",graduated_college,1542357290017,12,female,angel,German,Completely Disagree,Completely Agree,Bad,Looking at the perceived life: ,Cyp was happy.,100,70,100,Fri Nov 16 2018 09:27:00 GMT+0100 (Mitteleuropäische Normalzeit),1542356820579,7.823966666666666,4,mainSliderRating
169,224672,Looking at the actual life: ,36,"So you are checking personal perception, actions, and the results of action as possible indicators of happiness?\n\nIf it is so, how could results of action be even interpreted as the amount of happiness one percepts?\n\nIs not happiness, all about the perception of self in relation with the environment? At least, that's how I feel.\n\nPS. I love surveys and tests! Send me more :)",higher_degree,1542332542485,12,female,devil,Persian (Farsi),Completely Disagree,Completely Agree,Bad,Looking at the perceived life: ,Cyp was happy.,78,50,100,Fri Nov 16 2018 02:28:33 GMT+0100 (CET),1542331713840,13.81075,1,mainSliderRating
169,110895,Looking at the actual life: ,36,"So you are checking personal perception, actions, and the results of action as possible indicators of happiness?\n\nIf it is so, how could results of action be even interpreted as the amount of happiness one percepts?\n\nIs not happiness, all about the perception of self in relation with the environment? At least, that's how I feel.\n\nPS. I love surveys and tests! Send me more :)",higher_degree,1542332542485,12,female,devil,Persian (Farsi),Completely Disagree,Completely Agree,Good,Looking at the perceived life: ,Merrhi was happy.,79,22,100,Fri Nov 16 2018 02:28:33 GMT+0100 (CET),1542331713840,13.81075,2,mainSliderRating
169,111129,Looking at the actual life: ,36,"So you are checking personal perception, actions, and the results of action as possible indicators of happiness?\n\nIf it is so, how could results of action be even interpreted as the amount of happiness one percepts?\n\nIs not happiness, all about the perception of self in relation with the environment? At least, that's how I feel.\n\nPS. I love surveys and tests! Send me more :)",higher_degree,1542332542485,12,female,angel,Persian (Farsi),Completely Disagree,Completely Agree,Bad,Looking at the perceived life: ,Khamma was happy.,100,50,100,Fri Nov 16 2018 02:28:33 GMT+0100 (CET),1542331713840,13.81075,3,mainSliderRating
169,108549,Looking at the actual life: ,36,"So you are checking personal perception, actions, and the results of action as possible indicators of happiness?\n\nIf it is so, how could results of action be even interpreted as the amount of happiness one percepts?\n\nIs not happiness, all about the perception of self in relation with the environment? At least, that's how I feel.\n\nPS. I love surveys and tests! Send me more :)",higher_degree,1542332542485,12,female,angel,Persian (Farsi),Completely Disagree,Completely Agree,Good,Looking at the perceived life: ,Noscorr was happy.,77,50,100,Fri Nov 16 2018 02:28:33 GMT+0100 (CET),1542331713840,13.81075,4,mainSliderRating
168,94873,Looking at the actual life: ,18,,graduated_high_school,1542323599427,12,female,angel,German,Completely Disagree,Completely Agree,Good,Looking at the perceived life: ,Noscorr was happy.,76,83,31,Fri Nov 16 2018 00:07:14 GMT+0100 (Mitteleuropäische Normalzeit),1542323234522,6.08175,1,mainSliderRating
168,93674,Looking at the actual life: ,18,,graduated_high_school,1542323599427,12,female,devil,German,Completely Disagree,Completely Agree,Good,Looking at the perceived life: ,Khamma was happy.,25,24,77,Fri Nov 16 2018 00:07:14 GMT+0100 (Mitteleuropäische Normalzeit),1542323234522,6.08175,2,mainSliderRating
168,73138,Looking at the actual life: ,18,,graduated_high_school,1542323599427,12,female,angel,German,Completely Disagree,Completely Agree,Bad,Looking at the perceived life: ,Cyp was happy.,86,66,85,Fri Nov 16 2018 00:07:14 GMT+0100 (Mitteleuropäische Normalzeit),1542323234522,6.08175,3,mainSliderRating
168,59644,Looking at the actual life: ,18,,graduated_high_school,1542323599427,12,female,devil,German,Completely Disagree,Completely Agree,Bad,Looking at the perceived life: ,Merrhi was happy.,22,11,66,Fri Nov 16 2018 00:07:14 GMT+0100 (Mitteleuropäische Normalzeit),1542323234522,6.08175,4,mainSliderRating
167,99931,Looking at the actual life: ,27,,graduated_high_school,1542319859494,12,female,devil,German,Completely Disagree,Completely Agree,Good,Looking at the perceived life: ,Noscorr was happy.,100,62,86,Thu Nov 15 2018 23:05:44 GMT+0100 (Central European Standard Time),1542319544614,5.248,1,mainSliderRating
167,54119,Looking at the actual life: ,27,,graduated_high_school,1542319859494,12,female,devil,German,Completely Disagree,Completely Agree,Bad,Looking at the perceived life: ,Cyp was happy.,97,30,100,Thu Nov 15 2018 23:05:44 GMT+0100 (Central European Standard Time),1542319544614,5.248,2,mainSliderRating
167,51897,Looking at the actual life: ,27,,graduated_high_school,1542319859494,12,female,angel,German,Completely Disagree,Completely Agree,Bad,Looking at the perceived life: ,Merrhi was happy.,92,61,82,Thu Nov 15 2018 23:05:44 GMT+0100 (Central European Standard Time),1542319544614,5.248,3,mainSliderRating
167,73739,Looking at the actual life: ,27,,graduated_high_school,1542319859494,12,female,angel,German,Completely Disagree,Completely Agree,Good,Looking at the perceived life: ,Khamma was happy.,98,100,91,Thu Nov 15 2018 23:05:44 GMT+0100 (Central European Standard Time),1542319544614,5.248,4,mainSliderRating
166,195252,Looking at the actual life: ,23,,graduated_high_school,1542314823052,12,female,devil,german,Completely Disagree,Completely Agree,Bad,Looking at the perceived life: ,Cyp was happy.,78,36,65,Thu Nov 15 2018 21:29:23 GMT+0100 (Central European Standard Time),1542313763505,17.659116666666666,1,mainSliderRating
166,183178,Looking at the actual life: ,23,,graduated_high_school,1542314823052,12,female,devil,german,Completely Disagree,Completely Agree,Good,Looking at the perceived life: ,Noscorr was happy.,83,63,73,Thu Nov 15 2018 21:29:23 GMT+0100 (Central European Standard Time),1542313763505,17.659116666666666,2,mainSliderRating
166,103206,Looking at the actual life: ,23,,graduated_high_school,1542314823052,12,female,angel,german,Completely Disagree,Completely Agree,Bad,Looking at the perceived life: ,Merrhi was happy.,68,50,81,Thu Nov 15 2018 21:29:23 GMT+0100 (Central European Standard Time),1542313763505,17.659116666666666,3,mainSliderRating
166,120657,Looking at the actual life: ,23,,graduated_high_school,1542314823052,12,female,angel,german,Completely Disagree,Completely Agree,Good,Looking at the perceived life: ,Khamma was happy.,89,61,79,Thu Nov 15 2018 21:29:23 GMT+0100 (Central European Standard Time),1542313763505,17.659116666666666,4,mainSliderRating
165,195899,Looking at the actual life: ,21,I don't think that making the stories about aliens and planets added anything to them that would make people respond in a way that was different from how they would if the storiew were about humans and countries.,graduated_high_school,1542310810173,12,male,angel,"German, Russian",Completely Disagree,Completely Agree,Good,Looking at the perceived life: ,Khamma was happy.,100,49,69,Thu Nov 15 2018 20:09:26 GMT+0100 (GMT+01:00),1542308966116,30.734283333333334,1,mainSliderRating
165,106464,Looking at the actual life: ,21,I don't think that making the stories about aliens and planets added anything to them that would make people respond in a way that was different from how they would if the storiew were about humans and countries.,graduated_high_school,1542310810173,12,male,devil,"German, Russian",Completely Disagree,Completely Agree,Good,Looking at the perceived life: ,Noscorr was happy.,22,45,22,Thu Nov 15 2018 20:09:26 GMT+0100 (GMT+01:00),1542308966116,30.734283333333334,2,mainSliderRating
165,1056690,Looking at the actual life: ,21,I don't think that making the stories about aliens and planets added anything to them that would make people respond in a way that was different from how they would if the storiew were about humans and countries.,graduated_high_school,1542310810173,12,male,angel,"German, Russian",Completely Disagree,Completely Agree,Bad,Looking at the perceived life: ,Cyp was happy.,80,100,100,Thu Nov 15 2018 20:09:26 GMT+0100 (GMT+01:00),1542308966116,30.734283333333334,3,mainSliderRating
165,116832,Looking at the actual life: ,21,I don't think that making the stories about aliens and planets added anything to them that would make people respond in a way that was different from how they would if the storiew were about humans and countries.,graduated_high_school,1542310810173,12,male,devil,"German, Russian",Completely Disagree,Completely Agree,Bad,Looking at the perceived life: ,Merrhi was happy.,19,29,72,Thu Nov 15 2018 20:09:26 GMT+0100 (GMT+01:00),1542308966116,30.734283333333334,4,mainSliderRating
164,213672,Looking at the actual life: ,,,,1542309845529,12,,angel,,Completely Disagree,Completely Agree,Bad,Looking at the perceived life: ,Cyp was happy.,8,17,23,Thu Nov 15 2018 16:22:05 GMT+0100 (Central European Standard Time),1542295325985,241.9924,1,mainSliderRating
164,151157,Looking at the actual life: ,,,,1542309845529,12,,devil,,Completely Disagree,Completely Agree,Bad,Looking at the perceived life: ,Merrhi was happy.,62,0,92,Thu Nov 15 2018 16:22:05 GMT+0100 (Central European Standard Time),1542295325985,241.9924,2,mainSliderRating
164,136552,Looking at the actual life: ,,,,1542309845529,12,,devil,,Completely Disagree,Completely Agree,Good,Looking at the perceived life: ,Khamma was happy.,24,4,27,Thu Nov 15 2018 16:22:05 GMT+0100 (Central European Standard Time),1542295325985,241.9924,3,mainSliderRating
164,258957,Looking at the actual life: ,,,,1542309845529,12,,angel,,Completely Disagree,Completely Agree,Good,Looking at the perceived life: ,Noscorr was happy.,72,80,78,Thu Nov 15 2018 16:22:05 GMT+0100 (Central European Standard Time),1542295325985,241.9924,4,mainSliderRating
163,171009,Looking at the actual life: ,19,,graduated_high_school,1542309693714,12,,angel,,Completely Disagree,Completely Agree,Bad,Looking at the perceived life: ,Khamma was happy.,98,69,89,Thu Nov 15 2018 20:13:52 GMT+0100 (CET),1542309232805,7.681816666666666,1,mainSliderRating
163,105098,Looking at the actual life: ,19,,graduated_high_school,1542309693714,12,,devil,,Completely Disagree,Completely Agree,Good,Looking at the perceived life: ,Merrhi was happy.,68,73,71,Thu Nov 15 2018 20:13:52 GMT+0100 (CET),1542309232805,7.681816666666666,2,mainSliderRating
163,62754,Looking at the actual life: ,19,,graduated_high_school,1542309693714,12,,angel,,Completely Disagree,Completely Agree,Good,Looking at the perceived life: ,Cyp was happy.,86,91,95,Thu Nov 15 2018 20:13:52 GMT+0100 (CET),1542309232805,7.681816666666666,3,mainSliderRating
163,45508,Looking at the actual life: ,19,,graduated_high_school,1542309693714,12,,devil,,Completely Disagree,Completely Agree,Bad,Looking at the perceived life: ,Noscorr was happy.,90,96,92,Thu Nov 15 2018 20:13:52 GMT+0100 (CET),1542309232805,7.681816666666666,4,mainSliderRating
162,133583,Looking at the actual life: ,18,,graduated_high_school,1542298316843,12,female,devil,german,Completely Disagree,Completely Agree,Bad,Looking at the perceived life: ,Cyp was happy.,7,34,60,Thu Nov 15 2018 17:01:34 GMT+0100 (Mitteleuropäische Normalzeit),1542297694451,10.3732,1,mainSliderRating
162,176253,Looking at the actual life: ,18,,graduated_high_school,1542298316843,12,female,angel,german,Completely Disagree,Completely Agree,Good,Looking at the perceived life: ,Merrhi was happy.,66,24,22,Thu Nov 15 2018 17:01:34 GMT+0100 (Mitteleuropäische Normalzeit),1542297694451,10.3732,2,mainSliderRating
162,147735,Looking at the actual life: ,18,,graduated_high_school,1542298316843,12,female,angel,german,Completely Disagree,Completely Agree,Bad,Looking at the perceived life: ,Khamma was happy.,35,25,31,Thu Nov 15 2018 17:01:34 GMT+0100 (Mitteleuropäische Normalzeit),1542297694451,10.3732,3,mainSliderRating
162,129902,Looking at the actual life: ,18,,graduated_high_school,1542298316843,12,female,devil,german,Completely Disagree,Completely Agree,Good,Looking at the perceived life: ,Noscorr was happy.,70,76,69,Thu Nov 15 2018 17:01:34 GMT+0100 (Mitteleuropäische Normalzeit),1542297694451,10.3732,4,mainSliderRating
161,88673,Looking at the actual life: ,18,,graduated_high_school,1542297975685,12,female,devil,German,Completely Disagree,Completely Agree,Good,Looking at the perceived life: ,Khamma was happy.,100,38,100,Thu Nov 15 2018 17:01:17 GMT+0100,1542297677616,4.967816666666667,1,mainSliderRating
161,40611,Looking at the actual life: ,18,,graduated_high_school,1542297975685,12,female,devil,German,Completely Disagree,Completely Agree,Bad,Looking at the perceived life: ,Cyp was happy.,100,33,70,Thu Nov 15 2018 17:01:17 GMT+0100,1542297677616,4.967816666666667,2,mainSliderRating
161,57064,Looking at the actual life: ,18,,graduated_high_school,1542297975685,12,female,angel,German,Completely Disagree,Completely Agree,Bad,Looking at the perceived life: ,Noscorr was happy.,100,73,100,Thu Nov 15 2018 17:01:17 GMT+0100,1542297677616,4.967816666666667,3,mainSliderRating
161,78832,Looking at the actual life: ,18,,graduated_high_school,1542297975685,12,female,angel,German,Completely Disagree,Completely Agree,Good,Looking at the perceived life: ,Merrhi was happy.,100,83,100,Thu Nov 15 2018 17:01:17 GMT+0100,1542297677616,4.967816666666667,4,mainSliderRating
160,162381,Looking at the actual life: ,18,,graduated_high_school,1542297565871,12,male,angel,German,Completely Disagree,Completely Agree,Good,Looking at the perceived life: ,Cyp was happy.,100,100,100,Thu Nov 15 2018 16:43:16 GMT+0100 (Mitteleuropäische Normalzeit),1542296596666,16.153416666666665,1,mainSliderRating
160,80870,Looking at the actual life: ,18,,graduated_high_school,1542297565871,12,male,angel,German,Completely Disagree,Completely Agree,Bad,Looking at the perceived life: ,Merrhi was happy.,100,100,100,Thu Nov 15 2018 16:43:16 GMT+0100 (Mitteleuropäische Normalzeit),1542296596666,16.153416666666665,2,mainSliderRating
160,74015,Looking at the actual life: ,18,,graduated_high_school,1542297565871,12,male,devil,German,Completely Disagree,Completely Agree,Bad,Looking at the perceived life: ,Noscorr was happy.,100,100,100,Thu Nov 15 2018 16:43:16 GMT+0100 (Mitteleuropäische Normalzeit),1542296596666,16.153416666666665,3,mainSliderRating
160,73751,Looking at the actual life: ,18,,graduated_high_school,1542297565871,12,male,devil,German,Completely Disagree,Completely Agree,Good,Looking at the perceived life: ,Khamma was happy.,20,15,17,Thu Nov 15 2018 16:43:16 GMT+0100 (Mitteleuropäische Normalzeit),1542296596666,16.153416666666665,4,mainSliderRating
157,88677,Looking at the actual life: ,21,,higher_degree,1542296427122,12,female,devil,German,Completely Disagree,Completely Agree,Good,Looking at the perceived life: ,Noscorr was happy.,90,74,94,Thu Nov 15 2018 16:16:03 GMT+0100 (Mitteleuropäische Normalzeit),1542294963554,24.3928,1,mainSliderRating
157,51841,Looking at the actual life: ,21,,higher_degree,1542296427122,12,female,angel,German,Completely Disagree,Completely Agree,Good,Looking at the perceived life: ,Cyp was happy.,100,92,100,Thu Nov 15 2018 16:16:03 GMT+0100 (Mitteleuropäische Normalzeit),1542294963554,24.3928,2,mainSliderRating
157,53517,Looking at the actual life: ,21,,higher_degree,1542296427122,12,female,devil,German,Completely Disagree,Completely Agree,Bad,Looking at the perceived life: ,Khamma was happy.,98,18,96,Thu Nov 15 2018 16:16:03 GMT+0100 (Mitteleuropäische Normalzeit),1542294963554,24.3928,3,mainSliderRating
157,40713,Looking at the actual life: ,21,,higher_degree,1542296427122,12,female,angel,German,Completely Disagree,Completely Agree,Bad,Looking at the perceived life: ,Merrhi was happy.,98,61,90,Thu Nov 15 2018 16:16:03 GMT+0100 (Mitteleuropäische Normalzeit),1542294963554,24.3928,4,mainSliderRating
156,734926,Looking at the actual life: ,21,,graduated_high_school,1542293914402,12,female,angel,German,Completely Disagree,Completely Agree,Good,Looking at the perceived life: ,Khamma was happy.,90,86,30,Thu Nov 15 2018 12:26:08 GMT+0100 (Mitteleuropäische Zeit),1542281168301,212.43501666666666,1,mainSliderRating
156,79299,Looking at the actual life: ,21,,graduated_high_school,1542293914402,12,female,devil,German,Completely Disagree,Completely Agree,Good,Looking at the perceived life: ,Merrhi was happy.,100,28,64,Thu Nov 15 2018 12:26:08 GMT+0100 (Mitteleuropäische Zeit),1542281168301,212.43501666666666,2,mainSliderRating
156,78136,Looking at the actual life: ,21,,graduated_high_school,1542293914402,12,female,devil,German,Completely Disagree,Completely Agree,Bad,Looking at the perceived life: ,Cyp was happy.,100,50,96,Thu Nov 15 2018 12:26:08 GMT+0100 (Mitteleuropäische Zeit),1542281168301,212.43501666666666,3,mainSliderRating
156,63007,Looking at the actual life: ,21,,graduated_high_school,1542293914402,12,female,angel,German,Completely Disagree,Completely Agree,Bad,Looking at the perceived life: ,Noscorr was happy.,100,18,94,Thu Nov 15 2018 12:26:08 GMT+0100 (Mitteleuropäische Zeit),1542281168301,212.43501666666666,4,mainSliderRating
155,109717,Looking at the actual life: ,,,graduated_high_school,1542293534684,12,female,angel,German,Completely Disagree,Completely Agree,Good,Looking at the perceived life: ,Khamma was happy.,100,96,100,Thu Nov 15 2018 15:45:38 GMT+0100 (Mitteleuropäische Normalzeit),1542293138942,6.5957,1,mainSliderRating
155,69969,Looking at the actual life: ,,,graduated_high_school,1542293534684,12,female,devil,German,Completely Disagree,Completely Agree,Bad,Looking at the perceived life: ,Merrhi was happy.,88,0,100,Thu Nov 15 2018 15:45:38 GMT+0100 (Mitteleuropäische Normalzeit),1542293138942,6.5957,2,mainSliderRating
155,91820,Looking at the actual life: ,,,graduated_high_school,1542293534684,12,female,angel,German,Completely Disagree,Completely Agree,Bad,Looking at the perceived life: ,Noscorr was happy.,83,85,98,Thu Nov 15 2018 15:45:38 GMT+0100 (Mitteleuropäische Normalzeit),1542293138942,6.5957,3,mainSliderRating
155,88058,Looking at the actual life: ,,,graduated_high_school,1542293534684,12,female,devil,German,Completely Disagree,Completely Agree,Good,Looking at the perceived life: ,Cyp was happy.,100,94,100,Thu Nov 15 2018 15:45:38 GMT+0100 (Mitteleuropäische Normalzeit),1542293138942,6.5957,4,mainSliderRating
154,115798,Looking at the actual life: ,25,"The questions aren't crisp. It'd be better if they are framed for further clarity. It could be that they were made so in order to understand the psyche of the user, but a bit of clarity that would help one grasp the idea immediately would definitely help.",graduated_college,1542292882793,12,male,devil,Hindi,Completely Disagree,Completely Agree,Good,Looking at the perceived life: ,Khamma was happy.,86,0,1,Thu Nov 15 2018 20:01:18 GMT+0530 (India Standard Time),1542292278353,10.074,1,mainSliderRating
154,60757,Looking at the actual life: ,25,"The questions aren't crisp. It'd be better if they are framed for further clarity. It could be that they were made so in order to understand the psyche of the user, but a bit of clarity that would help one grasp the idea immediately would definitely help.",graduated_college,1542292882793,12,male,devil,Hindi,Completely Disagree,Completely Agree,Bad,Looking at the perceived life: ,Merrhi was happy.,87,0,0,Thu Nov 15 2018 20:01:18 GMT+0530 (India Standard Time),1542292278353,10.074,2,mainSliderRating
154,95545,Looking at the actual life: ,25,"The questions aren't crisp. It'd be better if they are framed for further clarity. It could be that they were made so in order to understand the psyche of the user, but a bit of clarity that would help one grasp the idea immediately would definitely help.",graduated_college,1542292882793,12,male,angel,Hindi,Completely Disagree,Completely Agree,Bad,Looking at the perceived life: ,Cyp was happy.,100,20,96,Thu Nov 15 2018 20:01:18 GMT+0530 (India Standard Time),1542292278353,10.074,3,mainSliderRating
154,97639,Looking at the actual life: ,25,"The questions aren't crisp. It'd be better if they are framed for further clarity. It could be that they were made so in order to understand the psyche of the user, but a bit of clarity that would help one grasp the idea immediately would definitely help.",graduated_college,1542292882793,12,male,angel,Hindi,Completely Disagree,Completely Agree,Good,Looking at the perceived life: ,Noscorr was happy.,100,80,23,Thu Nov 15 2018 20:01:18 GMT+0530 (India Standard Time),1542292278353,10.074,4,mainSliderRating
152,76027,Looking at the actual life: ,23,-,graduated_college,1542291921535,12,female,devil,"german, polish",Completely Disagree,Completely Agree,Bad,Looking at the perceived life: ,Merrhi was happy.,38,0,61,Thu Nov 15 2018 15:19:17 GMT+0100 (Central European Standard Time),1542291557322,6.070216666666667,1,mainSliderRating
152,122516,Looking at the actual life: ,23,-,graduated_college,1542291921535,12,female,devil,"german, polish",Completely Disagree,Completely Agree,Good,Looking at the perceived life: ,Cyp was happy.,55,27,74,Thu Nov 15 2018 15:19:17 GMT+0100 (Central European Standard Time),1542291557322,6.070216666666667,2,mainSliderRating
152,35226,Looking at the actual life: ,23,-,graduated_college,1542291921535,12,female,angel,"german, polish",Completely Disagree,Completely Agree,Good,Looking at the perceived life: ,Khamma was happy.,84,97,96,Thu Nov 15 2018 15:19:17 GMT+0100 (Central European Standard Time),1542291557322,6.070216666666667,3,mainSliderRating
152,87465,Looking at the actual life: ,23,-,graduated_college,1542291921535,12,female,angel,"german, polish",Completely Disagree,Completely Agree,Bad,Looking at the perceived life: ,Noscorr was happy.,63,47,34,Thu Nov 15 2018 15:19:17 GMT+0100 (Central European Standard Time),1542291557322,6.070216666666667,4,mainSliderRating
151,135723,Looking at the actual life: ,29,,graduated_college,1542291909908,12,male,devil,german,Completely Disagree,Completely Agree,Bad,Looking at the perceived life: ,Merrhi was happy.,79,12,84,Thu Nov 15 2018 15:18:22 GMT+0100 (Mitteleuropäische Normalzeit),1542291502680,6.787133333333333,1,mainSliderRating
151,69622,Looking at the actual life: ,29,,graduated_college,1542291909908,12,male,angel,german,Completely Disagree,Completely Agree,Bad,Looking at the perceived life: ,Cyp was happy.,100,81,100,Thu Nov 15 2018 15:18:22 GMT+0100 (Mitteleuropäische Normalzeit),1542291502680,6.787133333333333,2,mainSliderRating
151,89424,Looking at the actual life: ,29,,graduated_college,1542291909908,12,male,angel,german,Completely Disagree,Completely Agree,Good,Looking at the perceived life: ,Khamma was happy.,100,100,100,Thu Nov 15 2018 15:18:22 GMT+0100 (Mitteleuropäische Normalzeit),1542291502680,6.787133333333333,3,mainSliderRating
151,58339,Looking at the actual life: ,29,,graduated_college,1542291909908,12,male,devil,german,Completely Disagree,Completely Agree,Good,Looking at the perceived life: ,Noscorr was happy.,100,100,100,Thu Nov 15 2018 15:18:22 GMT+0100 (Mitteleuropäische Normalzeit),1542291502680,6.787133333333333,4,mainSliderRating
150,171613,Looking at the actual life: ,18,,graduated_high_school,1542291907757,12,female,angel,german,Completely Disagree,Completely Agree,Good,Looking at the perceived life: ,Noscorr was happy.,91,76,93,Thu Nov 15 2018 15:16:39 GMT+0100 (Mitteleuropäische Normalzeit),1542291399432,8.472083333333334,1,mainSliderRating
150,114795,Looking at the actual life: ,18,,graduated_high_school,1542291907757,12,female,devil,german,Completely Disagree,Completely Agree,Bad,Looking at the perceived life: ,Merrhi was happy.,68,42,77,Thu Nov 15 2018 15:16:39 GMT+0100 (Mitteleuropäische Normalzeit),1542291399432,8.472083333333334,2,mainSliderRating
150,111631,Looking at the actual life: ,18,,graduated_high_school,1542291907757,12,female,devil,german,Completely Disagree,Completely Agree,Good,Looking at the perceived life: ,Khamma was happy.,61,59,55,Thu Nov 15 2018 15:16:39 GMT+0100 (Mitteleuropäische Normalzeit),1542291399432,8.472083333333334,3,mainSliderRating
150,67421,Looking at the actual life: ,18,,graduated_high_school,1542291907757,12,female,angel,german,Completely Disagree,Completely Agree,Bad,Looking at the perceived life: ,Cyp was happy.,98,94,95,Thu Nov 15 2018 15:16:39 GMT+0100 (Mitteleuropäische Normalzeit),1542291399432,8.472083333333334,4,mainSliderRating
117,66602,Looking at the actual life: ,21,,graduated_high_school,1542291513859,12,female,angel,"German, Spanish",Completely Disagree,Completely Agree,Bad,Looking at the perceived life: ,Merrhi was happy.,100,19,100,Thu Nov 15 2018 15:07:01 GMT+0100 (Central European Standard Time),1542290821638,11.537016666666666,1,mainSliderRating
117,123630,Looking at the actual life: ,21,,graduated_high_school,1542291513859,12,female,devil,"German, Spanish",Completely Disagree,Completely Agree,Good,Looking at the perceived life: ,Cyp was happy.,100,87,100,Thu Nov 15 2018 15:07:01 GMT+0100 (Central European Standard Time),1542290821638,11.537016666666666,2,mainSliderRating
117,309598,Looking at the actual life: ,21,,graduated_high_school,1542291513859,12,female,angel,"German, Spanish",Completely Disagree,Completely Agree,Good,Looking at the perceived life: ,Noscorr was happy.,100,14,93,Thu Nov 15 2018 15:07:01 GMT+0100 (Central European Standard Time),1542290821638,11.537016666666666,3,mainSliderRating
117,99020,Looking at the actual life: ,21,,graduated_high_school,1542291513859,12,female,devil,"German, Spanish",Completely Disagree,Completely Agree,Bad,Looking at the perceived life: ,Khamma was happy.,100,26,62,Thu Nov 15 2018 15:07:01 GMT+0100 (Central European Standard Time),1542290821638,11.537016666666666,4,mainSliderRating
116,137375,Looking at the actual life: ,25,,graduated_college,1542290588010,12,male,devil,hindi,Completely Disagree,Completely Agree,Bad,Looking at the perceived life: ,Merrhi was happy.,0,0,41,Thu Nov 15 2018 14:39:06 GMT+0100 (Central European Standard Time),1542289146133,24.031283333333334,1,mainSliderRating
116,99669,Looking at the actual life: ,25,,graduated_college,1542290588010,12,male,devil,hindi,Completely Disagree,Completely Agree,Good,Looking at the perceived life: ,Khamma was happy.,0,0,41,Thu Nov 15 2018 14:39:06 GMT+0100 (Central European Standard Time),1542289146133,24.031283333333334,2,mainSliderRating
116,93285,Looking at the actual life: ,25,,graduated_college,1542290588010,12,male,angel,hindi,Completely Disagree,Completely Agree,Bad,Looking at the perceived life: ,Noscorr was happy.,55,81,96,Thu Nov 15 2018 14:39:06 GMT+0100 (Central European Standard Time),1542289146133,24.031283333333334,3,mainSliderRating
116,56430,Looking at the actual life: ,25,,graduated_college,1542290588010,12,male,angel,hindi,Completely Disagree,Completely Agree,Good,Looking at the perceived life: ,Cyp was happy.,100,100,100,Thu Nov 15 2018 14:39:06 GMT+0100 (Central European Standard Time),1542289146133,24.031283333333334,4,mainSliderRating
115,1187519,Looking at the actual life: ,28,,higher_degree,1542289842341,12,female,devil,german,Completely Disagree,Completely Agree,Bad,Looking at the perceived life: ,Merrhi was happy.,85,58,77,Thu Nov 15 2018 14:27:26 GMT+0100 (Central European Standard Time),1542288446308,23.267216666666666,1,mainSliderRating
115,73727,Looking at the actual life: ,28,,higher_degree,1542289842341,12,female,angel,german,Completely Disagree,Completely Agree,Bad,Looking at the perceived life: ,Cyp was happy.,100,29,100,Thu Nov 15 2018 14:27:26 GMT+0100 (Central European Standard Time),1542288446308,23.267216666666666,2,mainSliderRating
115,54175,Looking at the actual life: ,28,,higher_degree,1542289842341,12,female,devil,german,Completely Disagree,Completely Agree,Good,Looking at the perceived life: ,Noscorr was happy.,85,18,89,Thu Nov 15 2018 14:27:26 GMT+0100 (Central European Standard Time),1542288446308,23.267216666666666,3,mainSliderRating
115,53637,Looking at the actual life: ,28,,higher_degree,1542289842341,12,female,angel,german,Completely Disagree,Completely Agree,Good,Looking at the perceived life: ,Khamma was happy.,83,82,81,Thu Nov 15 2018 14:27:26 GMT+0100 (Central European Standard Time),1542288446308,23.267216666666666,4,mainSliderRating
114,192939,Looking at the actual life: ,23,,graduated_high_school,1542288316397,12,male,angel,German,Completely Disagree,Completely Agree,Bad,Looking at the perceived life: ,Noscorr was happy.,32,14,100,Thu Nov 15 2018 14:09:26 GMT+0100 (Mitteleuropäische Normalzeit),1542287366548,15.830816666666667,1,mainSliderRating
114,119180,Looking at the actual life: ,23,,graduated_high_school,1542288316397,12,male,devil,German,Completely Disagree,Completely Agree,Good,Looking at the perceived life: ,Khamma was happy.,71,31,95,Thu Nov 15 2018 14:09:26 GMT+0100 (Mitteleuropäische Normalzeit),1542287366548,15.830816666666667,2,mainSliderRating
114,65869,Looking at the actual life: ,23,,graduated_high_school,1542288316397,12,male,angel,German,Completely Disagree,Completely Agree,Good,Looking at the perceived life: ,Merrhi was happy.,94,74,78,Thu Nov 15 2018 14:09:26 GMT+0100 (Mitteleuropäische Normalzeit),1542287366548,15.830816666666667,3,mainSliderRating
114,58933,Looking at the actual life: ,23,,graduated_high_school,1542288316397,12,male,devil,German,Completely Disagree,Completely Agree,Bad,Looking at the perceived life: ,Cyp was happy.,69,100,33,Thu Nov 15 2018 14:09:26 GMT+0100 (Mitteleuropäische Normalzeit),1542287366548,15.830816666666667,4,mainSliderRating
113,143710,Looking at the actual life: ,22,,graduated_college,1542288156472,12,female,devil,German,Completely Disagree,Completely Agree,Good,Looking at the perceived life: ,Noscorr was happy.,100,58,100,Thu Nov 15 2018 14:16:38 GMT+0100,1542287798483,5.966483333333334,1,mainSliderRating
113,56192,Looking at the actual life: ,22,,graduated_college,1542288156472,12,female,angel,German,Completely Disagree,Completely Agree,Good,Looking at the perceived life: ,Cyp was happy.,99,94,100,Thu Nov 15 2018 14:16:38 GMT+0100,1542287798483,5.966483333333334,2,mainSliderRating
113,52566,Looking at the actual life: ,22,,graduated_college,1542288156472,12,female,devil,German,Completely Disagree,Completely Agree,Bad,Looking at the perceived life: ,Khamma was happy.,100,15,100,Thu Nov 15 2018 14:16:38 GMT+0100,1542287798483,5.966483333333334,3,mainSliderRating
113,55351,Looking at the actual life: ,22,,graduated_college,1542288156472,12,female,angel,German,Completely Disagree,Completely Agree,Bad,Looking at the perceived life: ,Merrhi was happy.,100,68,100,Thu Nov 15 2018 14:16:38 GMT+0100,1542287798483,5.966483333333334,4,mainSliderRating
